"","X.1","Participant","X","Pattern","Wins","Losses","Super_Wins","Super_Losses","Face_Shown","Choice","RT","Condition","Pattern.Outcome","acc","Choice_numeric","Actual.Outcome","Stimuli","Category","Trial","age","gender","ethnicity","Att","EX","HH","SDO","EMS","IMS","blk_contact","blk_exp","intergroup_anx","mean_acc","avg_acc"
"1",1,"06eSCkYeAA",1,13,0,0,1,0,3,"touchdown","4.047",2,0,1,1,1,"black",2,171,19,1,"Asian",4.333333333,5,3.1,3.875,6,6.2,2,5.4,2.5,0.873684210526316,0.873684210526316
"2",2,"06eSCkYeAA",2,3,0,0,1,0,6,"touchdown","1.639",2,1,1,1,1,"white",1,130,19,1,"Asian",4.333333333,5,3.1,3.875,6,6.2,2,5.4,2.5,0.873684210526316,0.873684210526316
"3",3,"06eSCkYeAA",3,6,0,0,1,0,8,"touchdown","1.543",2,1,1,1,1,"black",2,169,19,1,"Asian",4.333333333,5,3.1,3.875,6,6.2,2,5.4,2.5,0.873684210526316,0.873684210526316
"4",4,"06eSCkYeAA",4,6,0,0,1,0,2,"touchdown","1.825",2,1,1,1,1,"white",1,170,19,1,"Asian",4.333333333,5,3.1,3.875,6,6.2,2,5.4,2.5,0.873684210526316,0.873684210526316
"5",5,"06eSCkYeAA",5,10,1,0,0,0,5,"no_touchdown","1.111",2,-1,1,0,-1,"black",2,125,19,1,"Asian",4.333333333,5,3.1,3.875,6,6.2,2,5.4,2.5,0.873684210526316,0.873684210526316
"6",6,"06eSCkYeAA",6,5,1,0,0,0,3,"touchdown","2.231",2,1,1,1,1,"black",2,166,19,1,"Asian",4.333333333,5,3.1,3.875,6,6.2,2,5.4,2.5,0.873684210526316,0.873684210526316
"7",7,"06eSCkYeAA",7,10,0,0,1,0,2,"no_touchdown","1.954",2,-1,1,0,-1,"white",1,167,19,1,"Asian",4.333333333,5,3.1,3.875,6,6.2,2,5.4,2.5,0.873684210526316,0.873684210526316
"8",8,"06eSCkYeAA",8,7,0,0,1,0,6,"no_touchdown","2.238",2,-1,1,0,-1,"white",1,168,19,1,"Asian",4.333333333,5,3.1,3.875,6,6.2,2,5.4,2.5,0.873684210526316,0.873684210526316
"9",9,"06eSCkYeAA",9,10,0,0,1,0,4,"no_touchdown","0.166",2,-1,1,0,-1,"black",2,124,19,1,"Asian",4.333333333,5,3.1,3.875,6,6.2,2,5.4,2.5,0.873684210526316,0.873684210526316
"10",10,"06eSCkYeAA",10,3,0,0,1,0,3,"touchdown","3.295",2,1,1,1,1,"black",2,139,19,1,"Asian",4.333333333,5,3.1,3.875,6,6.2,2,5.4,2.5,0.873684210526316,0.873684210526316
"11",11,"06eSCkYeAA",11,7,0,0,1,0,1,"no_touchdown","1.751",2,-1,1,0,-1,"white",1,126,19,1,"Asian",4.333333333,5,3.1,3.875,6,6.2,2,5.4,2.5,0.873684210526316,0.873684210526316
"12",12,"06eSCkYeAA",12,3,0,0,1,0,8,"touchdown","2.319",2,1,1,1,1,"black",2,127,19,1,"Asian",4.333333333,5,3.1,3.875,6,6.2,2,5.4,2.5,0.873684210526316,0.873684210526316
"13",13,"06eSCkYeAA",13,7,0,0,1,0,2,"no_touchdown","1.607",2,-1,1,0,-1,"white",1,128,19,1,"Asian",4.333333333,5,3.1,3.875,6,6.2,2,5.4,2.5,0.873684210526316,0.873684210526316
"14",14,"06eSCkYeAA",14,13,1,0,0,0,4,"touchdown","2.831",2,0,1,1,1,"black",2,129,19,1,"Asian",4.333333333,5,3.1,3.875,6,6.2,2,5.4,2.5,0.873684210526316,0.873684210526316
"15",15,"06eSCkYeAA",15,7,0,0,1,0,1,"no_touchdown","0.735",2,-1,1,0,-1,"white",1,144,19,1,"Asian",4.333333333,5,3.1,3.875,6,6.2,2,5.4,2.5,0.873684210526316,0.873684210526316
"16",16,"06eSCkYeAA",16,5,1,0,0,0,1,"touchdown","1.458",2,1,1,1,1,"white",1,145,19,1,"Asian",4.333333333,5,3.1,3.875,6,6.2,2,5.4,2.5,0.873684210526316,0.873684210526316
"17",17,"06eSCkYeAA",17,9,1,0,0,0,5,"touchdown","1.689",2,1,1,1,1,"black",2,146,19,1,"Asian",4.333333333,5,3.1,3.875,6,6.2,2,5.4,2.5,0.873684210526316,0.873684210526316
"18",18,"06eSCkYeAA",18,12,0,0,1,0,1,"no_touchdown","1.287",2,-1,1,0,-1,"white",1,165,19,1,"Asian",4.333333333,5,3.1,3.875,6,6.2,2,5.4,2.5,0.873684210526316,0.873684210526316
"19",19,"06eSCkYeAA",19,3,0,0,1,0,6,"touchdown","1.841",2,1,1,1,1,"white",1,148,19,1,"Asian",4.333333333,5,3.1,3.875,6,6.2,2,5.4,2.5,0.873684210526316,0.873684210526316
"20",20,"06eSCkYeAA",20,13,0,0,1,0,8,"touchdown","4.607",2,0,1,1,1,"black",2,149,19,1,"Asian",4.333333333,5,3.1,3.875,6,6.2,2,5.4,2.5,0.873684210526316,0.873684210526316
"21",21,"06eSCkYeAA",21,7,0,0,1,0,5,"no_touchdown","1.647",2,-1,1,0,-1,"black",2,150,19,1,"Asian",4.333333333,5,3.1,3.875,6,6.2,2,5.4,2.5,0.873684210526316,0.873684210526316
"22",22,"06eSCkYeAA",22,5,1,0,0,0,1,"touchdown","3.496",2,1,1,1,1,"white",1,151,19,1,"Asian",4.333333333,5,3.1,3.875,6,6.2,2,5.4,2.5,0.873684210526316,0.873684210526316
"23",23,"06eSCkYeAA",23,1,1,0,0,0,3,"touchdown","2.422",2,1,1,1,1,"black",2,152,19,1,"Asian",4.333333333,5,3.1,3.875,6,6.2,2,5.4,2.5,0.873684210526316,0.873684210526316
"24",24,"06eSCkYeAA",24,10,0,0,1,0,3,"no_touchdown","1.071",2,-1,1,0,-1,"black",2,153,19,1,"Asian",4.333333333,5,3.1,3.875,6,6.2,2,5.4,2.5,0.873684210526316,0.873684210526316
"25",25,"06eSCkYeAA",25,3,0,0,1,0,1,"touchdown","2.737",2,1,1,1,1,"white",1,154,19,1,"Asian",4.333333333,5,3.1,3.875,6,6.2,2,5.4,2.5,0.873684210526316,0.873684210526316
"26",26,"06eSCkYeAA",26,6,1,0,0,0,7,"touchdown","1.439",2,1,1,1,1,"white",1,31,19,1,"Asian",4.333333333,5,3.1,3.875,6,6.2,2,5.4,2.5,0.873684210526316,0.873684210526316
"27",27,"06eSCkYeAA",27,12,0,0,1,0,7,"no_touchdown","1.286",2,-1,1,0,-1,"white",1,155,19,1,"Asian",4.333333333,5,3.1,3.875,6,6.2,2,5.4,2.5,0.873684210526316,0.873684210526316
"28",28,"06eSCkYeAA",28,1,0,0,1,0,5,"touchdown","2.353",2,1,1,1,1,"black",2,156,19,1,"Asian",4.333333333,5,3.1,3.875,6,6.2,2,5.4,2.5,0.873684210526316,0.873684210526316
"29",29,"06eSCkYeAA",29,7,0,0,1,0,3,"no_touchdown","1.342",2,-1,1,0,-1,"black",2,157,19,1,"Asian",4.333333333,5,3.1,3.875,6,6.2,2,5.4,2.5,0.873684210526316,0.873684210526316
"30",30,"06eSCkYeAA",30,10,0,0,1,0,5,"no_touchdown","1.056",2,-1,1,0,-1,"black",2,158,19,1,"Asian",4.333333333,5,3.1,3.875,6,6.2,2,5.4,2.5,0.873684210526316,0.873684210526316
"31",31,"06eSCkYeAA",31,6,0,0,1,0,8,"touchdown","2.07,",2,1,1,1,1,"black",2,147,19,1,"Asian",4.333333333,5,3.1,3.875,6,6.2,2,5.4,2.5,0.873684210526316,0.873684210526316
"32",32,"06eSCkYeAA",32,13,1,0,0,0,5,"touchdown","3.997",2,0,1,1,1,"black",2,164,19,1,"Asian",4.333333333,5,3.1,3.875,6,6.2,2,5.4,2.5,0.873684210526316,0.873684210526316
"33",33,"06eSCkYeAA",33,6,0,0,1,0,8,"touchdown","1.293",2,1,1,1,1,"black",2,161,19,1,"Asian",4.333333333,5,3.1,3.875,6,6.2,2,5.4,2.5,0.873684210526316,0.873684210526316
"34",34,"06eSCkYeAA",34,14,1,0,0,0,6,"touchdown","1.514",2,0,1,1,1,"white",1,162,19,1,"Asian",4.333333333,5,3.1,3.875,6,6.2,2,5.4,2.5,0.873684210526316,0.873684210526316
"35",35,"06eSCkYeAA",35,2,0,0,1,0,7,"touchdown","2.32,",2,1,1,1,1,"white",1,163,19,1,"Asian",4.333333333,5,3.1,3.875,6,6.2,2,5.4,2.5,0.873684210526316,0.873684210526316
"36",36,"06eSCkYeAA",36,11,0,0,1,0,7,"no_touchdown","1.127",2,-1,1,0,-1,"white",1,41,19,1,"Asian",4.333333333,5,3.1,3.875,6,6.2,2,5.4,2.5,0.873684210526316,0.873684210526316
"37",37,"06eSCkYeAA",37,4,0,0,0,1,1,"touchdown","0.911",2,-1,0,1,-1,"white",1,42,19,1,"Asian",4.333333333,5,3.1,3.875,6,6.2,2,5.4,2.5,0.873684210526316,0.873684210526316
"38",38,"06eSCkYeAA",38,13,0,0,1,0,3,"touchdown","1.871",2,0,1,1,1,"black",2,43,19,1,"Asian",4.333333333,5,3.1,3.875,6,6.2,2,5.4,2.5,0.873684210526316,0.873684210526316
"39",39,"06eSCkYeAA",39,12,0,0,1,0,6,"no_touchdown","1.962",2,-1,1,0,-1,"white",1,44,19,1,"Asian",4.333333333,5,3.1,3.875,6,6.2,2,5.4,2.5,0.873684210526316,0.873684210526316
"40",40,"06eSCkYeAA",40,9,1,0,0,0,6,"touchdown","1.308",2,1,1,1,1,"white",1,45,19,1,"Asian",4.333333333,5,3.1,3.875,6,6.2,2,5.4,2.5,0.873684210526316,0.873684210526316
"41",41,"06eSCkYeAA",41,10,0,0,1,0,6,"no_touchdown","1.158",2,-1,1,0,-1,"white",1,173,19,1,"Asian",4.333333333,5,3.1,3.875,6,6.2,2,5.4,2.5,0.873684210526316,0.873684210526316
"42",42,"06eSCkYeAA",42,4,0,0,1,0,6,"no_touchdown","0.864",2,-1,1,0,-1,"white",1,174,19,1,"Asian",4.333333333,5,3.1,3.875,6,6.2,2,5.4,2.5,0.873684210526316,0.873684210526316
"43",43,"06eSCkYeAA",43,1,0,0,1,0,4,"touchdown","1.327",2,1,1,1,1,"black",2,131,19,1,"Asian",4.333333333,5,3.1,3.875,6,6.2,2,5.4,2.5,0.873684210526316,0.873684210526316
"44",44,"06eSCkYeAA",44,2,0,0,1,0,2,"touchdown","1.007",2,1,1,1,1,"white",1,132,19,1,"Asian",4.333333333,5,3.1,3.875,6,6.2,2,5.4,2.5,0.873684210526316,0.873684210526316
"45",45,"06eSCkYeAA",45,10,0,0,1,0,3,"no_touchdown","1.136",2,-1,1,0,-1,"black",2,133,19,1,"Asian",4.333333333,5,3.1,3.875,6,6.2,2,5.4,2.5,0.873684210526316,0.873684210526316
"46",46,"06eSCkYeAA",46,13,0,0,1,0,1,"touchdown","2.071",2,0,1,1,1,"white",1,134,19,1,"Asian",4.333333333,5,3.1,3.875,6,6.2,2,5.4,2.5,0.873684210526316,0.873684210526316
"47",47,"06eSCkYeAA",47,3,0,0,1,0,6,"touchdown","2.477",2,1,1,1,1,"white",1,135,19,1,"Asian",4.333333333,5,3.1,3.875,6,6.2,2,5.4,2.5,0.873684210526316,0.873684210526316
"48",48,"06eSCkYeAA",48,11,1,0,0,0,3,"no_touchdown","1.281",2,-1,1,0,-1,"black",2,136,19,1,"Asian",4.333333333,5,3.1,3.875,6,6.2,2,5.4,2.5,0.873684210526316,0.873684210526316
"49",49,"06eSCkYeAA",49,11,1,0,0,0,6,"no_touchdown","1.044",2,-1,1,0,-1,"white",1,137,19,1,"Asian",4.333333333,5,3.1,3.875,6,6.2,2,5.4,2.5,0.873684210526316,0.873684210526316
"50",50,"06eSCkYeAA",50,3,0,0,1,0,5,"touchdown","1.883",2,1,1,1,1,"black",2,138,19,1,"Asian",4.333333333,5,3.1,3.875,6,6.2,2,5.4,2.5,0.873684210526316,0.873684210526316
"51",51,"06eSCkYeAA",51,3,0,0,1,0,1,"touchdown","1.392",2,1,1,1,1,"white",1,140,19,1,"Asian",4.333333333,5,3.1,3.875,6,6.2,2,5.4,2.5,0.873684210526316,0.873684210526316
"52",52,"06eSCkYeAA",52,4,1,0,0,0,6,"no_touchdown","2.154",2,-1,1,0,-1,"white",1,141,19,1,"Asian",4.333333333,5,3.1,3.875,6,6.2,2,5.4,2.5,0.873684210526316,0.873684210526316
"53",53,"06eSCkYeAA",53,10,0,0,1,0,3,"no_touchdown","1.777",2,-1,1,0,-1,"black",2,142,19,1,"Asian",4.333333333,5,3.1,3.875,6,6.2,2,5.4,2.5,0.873684210526316,0.873684210526316
"54",54,"06eSCkYeAA",54,3,0,0,1,0,1,"touchdown","0.925",2,1,1,1,1,"white",1,143,19,1,"Asian",4.333333333,5,3.1,3.875,6,6.2,2,5.4,2.5,0.873684210526316,0.873684210526316
"55",55,"06eSCkYeAA",55,10,0,0,1,0,3,"no_touchdown","1.471",2,-1,1,0,-1,"black",2,20,19,1,"Asian",4.333333333,5,3.1,3.875,6,6.2,2,5.4,2.5,0.873684210526316,0.873684210526316
"56",56,"06eSCkYeAA",56,3,0,0,1,0,1,"touchdown","4.852",2,1,1,1,1,"white",1,21,19,1,"Asian",4.333333333,5,3.1,3.875,6,6.2,2,5.4,2.5,0.873684210526316,0.873684210526316
"57",57,"06eSCkYeAA",57,3,0,0,1,0,1,"touchdown","0.538",2,1,1,1,1,"white",1,22,19,1,"Asian",4.333333333,5,3.1,3.875,6,6.2,2,5.4,2.5,0.873684210526316,0.873684210526316
"58",58,"06eSCkYeAA",58,1,0,0,1,0,4,"touchdown","1.209",2,1,1,1,1,"black",2,23,19,1,"Asian",4.333333333,5,3.1,3.875,6,6.2,2,5.4,2.5,0.873684210526316,0.873684210526316
"59",59,"06eSCkYeAA",59,12,1,0,0,0,3,"no_touchdown","3.487",2,-1,1,0,-1,"black",2,24,19,1,"Asian",4.333333333,5,3.1,3.875,6,6.2,2,5.4,2.5,0.873684210526316,0.873684210526316
"60",60,"06eSCkYeAA",60,8,0,0,0,1,7,"touchdown","2.639",2,-1,0,1,-1,"white",1,25,19,1,"Asian",4.333333333,5,3.1,3.875,6,6.2,2,5.4,2.5,0.873684210526316,0.873684210526316
"61",61,"06eSCkYeAA",61,7,0,0,0,1,7,"touchdown","1.983",2,-1,0,1,-1,"white",1,26,19,1,"Asian",4.333333333,5,3.1,3.875,6,6.2,2,5.4,2.5,0.873684210526316,0.873684210526316
"62",62,"06eSCkYeAA",62,1,0,0,0,1,1,"no_touchdown","2.687",2,1,0,0,1,"white",1,27,19,1,"Asian",4.333333333,5,3.1,3.875,6,6.2,2,5.4,2.5,0.873684210526316,0.873684210526316
"63",63,"06eSCkYeAA",63,8,0,0,1,0,7,"no_touchdown","2.864",2,-1,1,0,-1,"white",1,28,19,1,"Asian",4.333333333,5,3.1,3.875,6,6.2,2,5.4,2.5,0.873684210526316,0.873684210526316
"64",64,"06eSCkYeAA",64,12,0,0,1,0,3,"no_touchdown","1.783",2,-1,1,0,-1,"black",2,29,19,1,"Asian",4.333333333,5,3.1,3.875,6,6.2,2,5.4,2.5,0.873684210526316,0.873684210526316
"65",65,"06eSCkYeAA",65,6,0,0,1,0,1,"touchdown","2.239",2,1,1,1,1,"white",1,30,19,1,"Asian",4.333333333,5,3.1,3.875,6,6.2,2,5.4,2.5,0.873684210526316,0.873684210526316
"66",66,"06eSCkYeAA",66,11,1,0,0,0,3,"no_touchdown","1.015",2,-1,1,0,-1,"black",2,72,19,1,"Asian",4.333333333,5,3.1,3.875,6,6.2,2,5.4,2.5,0.873684210526316,0.873684210526316
"67",67,"06eSCkYeAA",67,4,0,0,1,0,4,"no_touchdown","1.808",2,-1,1,0,-1,"black",2,73,19,1,"Asian",4.333333333,5,3.1,3.875,6,6.2,2,5.4,2.5,0.873684210526316,0.873684210526316
"68",68,"06eSCkYeAA",68,10,0,0,1,0,2,"no_touchdown","1.963",2,-1,1,0,-1,"white",1,74,19,1,"Asian",4.333333333,5,3.1,3.875,6,6.2,2,5.4,2.5,0.873684210526316,0.873684210526316
"69",69,"06eSCkYeAA",69,12,0,0,1,0,4,"no_touchdown","2.629",2,-1,1,0,-1,"black",2,75,19,1,"Asian",4.333333333,5,3.1,3.875,6,6.2,2,5.4,2.5,0.873684210526316,0.873684210526316
"70",70,"06eSCkYeAA",70,10,0,0,1,0,3,"no_touchdown","1.882",2,-1,1,0,-1,"black",2,76,19,1,"Asian",4.333333333,5,3.1,3.875,6,6.2,2,5.4,2.5,0.873684210526316,0.873684210526316
"71",71,"06eSCkYeAA",71,4,1,0,0,0,2,"no_touchdown","1.125",2,-1,1,0,-1,"white",1,77,19,1,"Asian",4.333333333,5,3.1,3.875,6,6.2,2,5.4,2.5,0.873684210526316,0.873684210526316
"72",72,"06eSCkYeAA",72,10,0,0,1,0,3,"no_touchdown","0.939",2,-1,1,0,-1,"black",2,78,19,1,"Asian",4.333333333,5,3.1,3.875,6,6.2,2,5.4,2.5,0.873684210526316,0.873684210526316
"73",73,"06eSCkYeAA",73,6,0,0,1,0,2,"touchdown","5.224",2,1,1,1,1,"white",1,79,19,1,"Asian",4.333333333,5,3.1,3.875,6,6.2,2,5.4,2.5,0.873684210526316,0.873684210526316
"74",74,"06eSCkYeAA",74,7,0,0,1,0,7,"no_touchdown","1.239",2,-1,1,0,-1,"white",1,80,19,1,"Asian",4.333333333,5,3.1,3.875,6,6.2,2,5.4,2.5,0.873684210526316,0.873684210526316
"75",75,"06eSCkYeAA",75,3,1,0,0,0,8,"touchdown","2.007",2,1,1,1,1,"black",2,81,19,1,"Asian",4.333333333,5,3.1,3.875,6,6.2,2,5.4,2.5,0.873684210526316,0.873684210526316
"76",76,"06eSCkYeAA",76,7,0,0,1,0,1,"no_touchdown","1.227",2,-1,1,0,-1,"white",1,82,19,1,"Asian",4.333333333,5,3.1,3.875,6,6.2,2,5.4,2.5,0.873684210526316,0.873684210526316
"77",77,"06eSCkYeAA",77,10,0,0,1,0,2,"no_touchdown","1.004",2,-1,1,0,-1,"white",1,83,19,1,"Asian",4.333333333,5,3.1,3.875,6,6.2,2,5.4,2.5,0.873684210526316,0.873684210526316
"78",78,"06eSCkYeAA",78,8,0,0,1,0,1,"no_touchdown","4.015",2,-1,1,0,-1,"white",1,84,19,1,"Asian",4.333333333,5,3.1,3.875,6,6.2,2,5.4,2.5,0.873684210526316,0.873684210526316
"79",79,"06eSCkYeAA",79,10,0,0,1,0,4,"no_touchdown","0.911",2,-1,1,0,-1,"black",2,85,19,1,"Asian",4.333333333,5,3.1,3.875,6,6.2,2,5.4,2.5,0.873684210526316,0.873684210526316
"80",80,"06eSCkYeAA",80,3,0,0,1,0,6,"touchdown","2.119",2,1,1,1,1,"white",1,86,19,1,"Asian",4.333333333,5,3.1,3.875,6,6.2,2,5.4,2.5,0.873684210526316,0.873684210526316
"81",81,"06eSCkYeAA",81,9,1,0,0,0,4,"touchdown","1.957",2,1,1,1,1,"black",2,87,19,1,"Asian",4.333333333,5,3.1,3.875,6,6.2,2,5.4,2.5,0.873684210526316,0.873684210526316
"82",82,"06eSCkYeAA",82,3,0,0,1,0,3,"touchdown","3.09,",2,1,1,1,1,"black",2,88,19,1,"Asian",4.333333333,5,3.1,3.875,6,6.2,2,5.4,2.5,0.873684210526316,0.873684210526316
"83",83,"06eSCkYeAA",83,8,0,1,0,0,5,"touchdown","2.07,",2,-1,0,1,-1,"black",2,175,19,1,"Asian",4.333333333,5,3.1,3.875,6,6.2,2,5.4,2.5,0.873684210526316,0.873684210526316
"84",84,"06eSCkYeAA",84,12,0,0,1,0,3,"no_touchdown","1.483",2,-1,1,0,-1,"black",2,176,19,1,"Asian",4.333333333,5,3.1,3.875,6,6.2,2,5.4,2.5,0.873684210526316,0.873684210526316
"85",85,"06eSCkYeAA",85,12,0,0,1,0,1,"no_touchdown","1.103",2,-1,1,0,-1,"white",1,177,19,1,"Asian",4.333333333,5,3.1,3.875,6,6.2,2,5.4,2.5,0.873684210526316,0.873684210526316
"86",86,"06eSCkYeAA",86,2,0,0,1,0,1,"touchdown","2.142",2,1,1,1,1,"white",1,178,19,1,"Asian",4.333333333,5,3.1,3.875,6,6.2,2,5.4,2.5,0.873684210526316,0.873684210526316
"87",87,"06eSCkYeAA",87,3,0,0,1,0,2,"touchdown","1.04,",2,1,1,1,1,"white",1,179,19,1,"Asian",4.333333333,5,3.1,3.875,6,6.2,2,5.4,2.5,0.873684210526316,0.873684210526316
"88",88,"06eSCkYeAA",88,9,1,0,0,0,7,"touchdown","1.546",2,1,1,1,1,"white",1,180,19,1,"Asian",4.333333333,5,3.1,3.875,6,6.2,2,5.4,2.5,0.873684210526316,0.873684210526316
"89",89,"06eSCkYeAA",89,1,0,0,1,0,1,"touchdown","0.913",2,1,1,1,1,"white",1,181,19,1,"Asian",4.333333333,5,3.1,3.875,6,6.2,2,5.4,2.5,0.873684210526316,0.873684210526316
"90",90,"06eSCkYeAA",90,10,0,0,1,0,5,"no_touchdown","0.963",2,-1,1,0,-1,"black",2,182,19,1,"Asian",4.333333333,5,3.1,3.875,6,6.2,2,5.4,2.5,0.873684210526316,0.873684210526316
"91",91,"06eSCkYeAA",91,3,0,0,1,0,6,"touchdown","1.434",2,1,1,1,1,"white",1,16,19,1,"Asian",4.333333333,5,3.1,3.875,6,6.2,2,5.4,2.5,0.873684210526316,0.873684210526316
"92",92,"06eSCkYeAA",92,7,0,0,0,1,4,"touchdown","0.972",2,-1,0,1,-1,"black",2,17,19,1,"Asian",4.333333333,5,3.1,3.875,6,6.2,2,5.4,2.5,0.873684210526316,0.873684210526316
"93",93,"06eSCkYeAA",93,3,0,0,0,1,1,"no_touchdown","1.643",2,1,0,0,1,"white",1,18,19,1,"Asian",4.333333333,5,3.1,3.875,6,6.2,2,5.4,2.5,0.873684210526316,0.873684210526316
"94",94,"06eSCkYeAA",94,5,0,0,0,1,8,"no_touchdown","2.939",2,1,0,0,1,"black",2,19,19,1,"Asian",4.333333333,5,3.1,3.875,6,6.2,2,5.4,2.5,0.873684210526316,0.873684210526316
"95",95,"06eSCkYeAA",95,4,1,0,0,0,3,"no_touchdown","1.887",2,-1,1,0,-1,"black",2,186,19,1,"Asian",4.333333333,5,3.1,3.875,6,6.2,2,5.4,2.5,0.873684210526316,0.873684210526316
"96",96,"06eSCkYeAA",96,14,1,0,0,0,2,"touchdown","1.807",2,0,1,1,1,"white",1,187,19,1,"Asian",4.333333333,5,3.1,3.875,6,6.2,2,5.4,2.5,0.873684210526316,0.873684210526316
"97",97,"06eSCkYeAA",97,10,0,0,1,0,8,"no_touchdown","1.198",2,-1,1,0,-1,"black",2,188,19,1,"Asian",4.333333333,5,3.1,3.875,6,6.2,2,5.4,2.5,0.873684210526316,0.873684210526316
"98",98,"06eSCkYeAA",98,5,1,0,0,0,4,"touchdown","1.595",2,1,1,1,1,"black",2,189,19,1,"Asian",4.333333333,5,3.1,3.875,6,6.2,2,5.4,2.5,0.873684210526316,0.873684210526316
"99",99,"06eSCkYeAA",99,10,0,0,1,0,4,"no_touchdown","0.885",2,-1,1,0,-1,"black",2,190,19,1,"Asian",4.333333333,5,3.1,3.875,6,6.2,2,5.4,2.5,0.873684210526316,0.873684210526316
"100",100,"06eSCkYeAA",100,12,0,0,1,0,3,"no_touchdown","2.558",2,-1,1,0,-1,"black",2,191,19,1,"Asian",4.333333333,5,3.1,3.875,6,6.2,2,5.4,2.5,0.873684210526316,0.873684210526316
"101",101,"06eSCkYeAA",101,8,0,0,1,0,6,"no_touchdown","1.1,",2,-1,1,0,-1,"white",1,67,19,1,"Asian",4.333333333,5,3.1,3.875,6,6.2,2,5.4,2.5,0.873684210526316,0.873684210526316
"102",102,"06eSCkYeAA",102,14,1,0,0,0,1,"touchdown","1.314",2,0,1,1,1,"white",1,68,19,1,"Asian",4.333333333,5,3.1,3.875,6,6.2,2,5.4,2.5,0.873684210526316,0.873684210526316
"103",103,"06eSCkYeAA",103,9,0,0,0,1,7,"no_touchdown","0.893",2,1,0,0,1,"white",1,69,19,1,"Asian",4.333333333,5,3.1,3.875,6,6.2,2,5.4,2.5,0.873684210526316,0.873684210526316
"104",104,"06eSCkYeAA",104,8,0,0,1,0,6,"no_touchdown","1.412",2,-1,1,0,-1,"white",1,70,19,1,"Asian",4.333333333,5,3.1,3.875,6,6.2,2,5.4,2.5,0.873684210526316,0.873684210526316
"105",105,"06eSCkYeAA",105,1,0,0,1,0,7,"touchdown","1.799",2,1,1,1,1,"white",1,71,19,1,"Asian",4.333333333,5,3.1,3.875,6,6.2,2,5.4,2.5,0.873684210526316,0.873684210526316
"106",106,"06eSCkYeAA",106,7,0,0,1,0,8,"no_touchdown","0.722",2,-1,1,0,-1,"black",2,113,19,1,"Asian",4.333333333,5,3.1,3.875,6,6.2,2,5.4,2.5,0.873684210526316,0.873684210526316
"107",107,"06eSCkYeAA",107,6,0,0,1,0,6,"touchdown","1.291",2,1,1,1,1,"white",1,114,19,1,"Asian",4.333333333,5,3.1,3.875,6,6.2,2,5.4,2.5,0.873684210526316,0.873684210526316
"108",108,"06eSCkYeAA",108,7,1,0,0,0,8,"no_touchdown","0.858",2,-1,1,0,-1,"black",2,115,19,1,"Asian",4.333333333,5,3.1,3.875,6,6.2,2,5.4,2.5,0.873684210526316,0.873684210526316
"109",109,"06eSCkYeAA",109,3,0,0,1,0,8,"touchdown","1.556",2,1,1,1,1,"black",2,116,19,1,"Asian",4.333333333,5,3.1,3.875,6,6.2,2,5.4,2.5,0.873684210526316,0.873684210526316
"110",110,"06eSCkYeAA",110,2,0,0,1,0,5,"touchdown","0.938",2,1,1,1,1,"black",2,117,19,1,"Asian",4.333333333,5,3.1,3.875,6,6.2,2,5.4,2.5,0.873684210526316,0.873684210526316
"111",111,"06eSCkYeAA",111,10,0,0,1,0,4,"no_touchdown","1.068",2,-1,1,0,-1,"black",2,118,19,1,"Asian",4.333333333,5,3.1,3.875,6,6.2,2,5.4,2.5,0.873684210526316,0.873684210526316
"112",112,"06eSCkYeAA",112,12,1,0,0,0,5,"no_touchdown","1.448",2,-1,1,0,-1,"black",2,119,19,1,"Asian",4.333333333,5,3.1,3.875,6,6.2,2,5.4,2.5,0.873684210526316,0.873684210526316
"113",113,"06eSCkYeAA",113,1,0,0,1,0,5,"touchdown","1.336",2,1,1,1,1,"black",2,120,19,1,"Asian",4.333333333,5,3.1,3.875,6,6.2,2,5.4,2.5,0.873684210526316,0.873684210526316
"114",114,"06eSCkYeAA",114,10,0,0,1,0,2,"no_touchdown","0.721",2,-1,1,0,-1,"white",1,121,19,1,"Asian",4.333333333,5,3.1,3.875,6,6.2,2,5.4,2.5,0.873684210526316,0.873684210526316
"115",115,"06eSCkYeAA",115,10,0,0,1,0,2,"no_touchdown","2.39,",2,-1,1,0,-1,"white",1,122,19,1,"Asian",4.333333333,5,3.1,3.875,6,6.2,2,5.4,2.5,0.873684210526316,0.873684210526316
"116",116,"06eSCkYeAA",116,5,0,0,1,0,8,"touchdown","1.382",2,1,1,1,1,"black",2,123,19,1,"Asian",4.333333333,5,3.1,3.875,6,6.2,2,5.4,2.5,0.873684210526316,0.873684210526316
"117",117,"06eSCkYeAA",117,12,0,0,1,0,8,"no_touchdown","1.564",2,-1,1,0,-1,"black",2,1,19,1,"Asian",4.333333333,5,3.1,3.875,6,6.2,2,5.4,2.5,0.873684210526316,0.873684210526316
"118",118,"06eSCkYeAA",118,6,0,0,1,0,3,"touchdown","1.439",2,1,1,1,1,"black",2,2,19,1,"Asian",4.333333333,5,3.1,3.875,6,6.2,2,5.4,2.5,0.873684210526316,0.873684210526316
"119",119,"06eSCkYeAA",119,12,0,0,1,0,7,"no_touchdown","1.684",2,-1,1,0,-1,"white",1,3,19,1,"Asian",4.333333333,5,3.1,3.875,6,6.2,2,5.4,2.5,0.873684210526316,0.873684210526316
"120",120,"06eSCkYeAA",120,12,0,0,1,0,1,"no_touchdown","2.403",2,-1,1,0,-1,"white",1,4,19,1,"Asian",4.333333333,5,3.1,3.875,6,6.2,2,5.4,2.5,0.873684210526316,0.873684210526316
"121",121,"06eSCkYeAA",121,10,0,0,0,1,2,"touchdown","5.518",2,-1,0,1,-1,"white",1,5,19,1,"Asian",4.333333333,5,3.1,3.875,6,6.2,2,5.4,2.5,0.873684210526316,0.873684210526316
"122",122,"06eSCkYeAA",122,10,0,0,1,0,7,"no_touchdown","2.846",2,-1,1,0,-1,"white",1,6,19,1,"Asian",4.333333333,5,3.1,3.875,6,6.2,2,5.4,2.5,0.873684210526316,0.873684210526316
"123",123,"06eSCkYeAA",123,13,1,0,0,0,4,"touchdown","1.523",2,0,1,1,1,"black",2,7,19,1,"Asian",4.333333333,5,3.1,3.875,6,6.2,2,5.4,2.5,0.873684210526316,0.873684210526316
"124",124,"06eSCkYeAA",124,6,1,0,0,0,7,"touchdown","2.114",2,1,1,1,1,"white",1,8,19,1,"Asian",4.333333333,5,3.1,3.875,6,6.2,2,5.4,2.5,0.873684210526316,0.873684210526316
"125",125,"06eSCkYeAA",125,3,0,0,0,1,8,"no_touchdown","1.993",2,1,0,0,1,"black",2,9,19,1,"Asian",4.333333333,5,3.1,3.875,6,6.2,2,5.4,2.5,0.873684210526316,0.873684210526316
"126",126,"06eSCkYeAA",126,7,0,0,0,1,5,"touchdown","2.427",2,-1,0,1,-1,"black",2,10,19,1,"Asian",4.333333333,5,3.1,3.875,6,6.2,2,5.4,2.5,0.873684210526316,0.873684210526316
"127",127,"06eSCkYeAA",127,3,0,0,0,1,2,"no_touchdown","1.547",2,1,0,0,1,"white",1,11,19,1,"Asian",4.333333333,5,3.1,3.875,6,6.2,2,5.4,2.5,0.873684210526316,0.873684210526316
"128",128,"06eSCkYeAA",128,1,0,0,1,0,8,"touchdown","1.39,",2,1,1,1,1,"black",2,12,19,1,"Asian",4.333333333,5,3.1,3.875,6,6.2,2,5.4,2.5,0.873684210526316,0.873684210526316
"129",129,"06eSCkYeAA",129,4,1,0,0,0,1,"no_touchdown","1.276",2,-1,1,0,-1,"white",1,13,19,1,"Asian",4.333333333,5,3.1,3.875,6,6.2,2,5.4,2.5,0.873684210526316,0.873684210526316
"130",130,"06eSCkYeAA",130,12,0,0,1,0,1,"no_touchdown","2.685",2,-1,1,0,-1,"white",1,14,19,1,"Asian",4.333333333,5,3.1,3.875,6,6.2,2,5.4,2.5,0.873684210526316,0.873684210526316
"131",131,"06eSCkYeAA",131,12,0,0,1,0,2,"no_touchdown","1.944",2,-1,1,0,-1,"white",1,15,19,1,"Asian",4.333333333,5,3.1,3.875,6,6.2,2,5.4,2.5,0.873684210526316,0.873684210526316
"132",132,"06eSCkYeAA",132,14,0,1,0,0,7,"no_touchdown","1.924",2,0,0,0,1,"white",1,56,19,1,"Asian",4.333333333,5,3.1,3.875,6,6.2,2,5.4,2.5,0.873684210526316,0.873684210526316
"133",133,"06eSCkYeAA",133,3,0,0,1,0,1,"touchdown","1.068",2,1,1,1,1,"white",1,183,19,1,"Asian",4.333333333,5,3.1,3.875,6,6.2,2,5.4,2.5,0.873684210526316,0.873684210526316
"134",134,"06eSCkYeAA",134,2,0,0,1,0,4,"touchdown","0.916",2,1,1,1,1,"black",2,184,19,1,"Asian",4.333333333,5,3.1,3.875,6,6.2,2,5.4,2.5,0.873684210526316,0.873684210526316
"135",135,"06eSCkYeAA",135,9,0,0,1,0,3,"touchdown","1.834",2,1,1,1,1,"black",2,185,19,1,"Asian",4.333333333,5,3.1,3.875,6,6.2,2,5.4,2.5,0.873684210526316,0.873684210526316
"136",136,"06eSCkYeAA",136,6,0,0,0,1,2,"no_touchdown","1.462",2,1,0,0,1,"white",1,61,19,1,"Asian",4.333333333,5,3.1,3.875,6,6.2,2,5.4,2.5,0.873684210526316,0.873684210526316
"137",137,"06eSCkYeAA",137,9,0,0,0,1,4,"no_touchdown","0.85,",2,1,0,0,1,"black",2,62,19,1,"Asian",4.333333333,5,3.1,3.875,6,6.2,2,5.4,2.5,0.873684210526316,0.873684210526316
"138",138,"06eSCkYeAA",138,12,0,0,0,1,3,"touchdown","0.765",2,-1,0,1,-1,"black",2,63,19,1,"Asian",4.333333333,5,3.1,3.875,6,6.2,2,5.4,2.5,0.873684210526316,0.873684210526316
"139",139,"06eSCkYeAA",139,6,0,0,0,1,2,"no_touchdown","1.46,",2,1,0,0,1,"white",1,64,19,1,"Asian",4.333333333,5,3.1,3.875,6,6.2,2,5.4,2.5,0.873684210526316,0.873684210526316
"140",140,"06eSCkYeAA",140,1,0,0,0,1,8,"no_touchdown","0.801",2,1,0,0,1,"black",2,65,19,1,"Asian",4.333333333,5,3.1,3.875,6,6.2,2,5.4,2.5,0.873684210526316,0.873684210526316
"141",141,"06eSCkYeAA",141,1,0,0,1,0,3,"touchdown","1.575",2,1,1,1,1,"black",2,66,19,1,"Asian",4.333333333,5,3.1,3.875,6,6.2,2,5.4,2.5,0.873684210526316,0.873684210526316
"142",142,"06eSCkYeAA",142,10,0,0,1,0,1,"no_touchdown","1.434",2,-1,1,0,-1,"white",1,107,19,1,"Asian",4.333333333,5,3.1,3.875,6,6.2,2,5.4,2.5,0.873684210526316,0.873684210526316
"143",143,"06eSCkYeAA",143,10,0,0,1,0,5,"no_touchdown","1.841",2,-1,1,0,-1,"black",2,108,19,1,"Asian",4.333333333,5,3.1,3.875,6,6.2,2,5.4,2.5,0.873684210526316,0.873684210526316
"144",144,"06eSCkYeAA",144,6,0,0,1,0,1,"touchdown","2.585",2,1,1,1,1,"white",1,109,19,1,"Asian",4.333333333,5,3.1,3.875,6,6.2,2,5.4,2.5,0.873684210526316,0.873684210526316
"145",145,"06eSCkYeAA",145,4,0,0,1,0,4,"no_touchdown","2.631",2,-1,1,0,-1,"black",2,110,19,1,"Asian",4.333333333,5,3.1,3.875,6,6.2,2,5.4,2.5,0.873684210526316,0.873684210526316
"146",146,"06eSCkYeAA",146,1,0,0,1,0,6,"touchdown","1.148",2,1,1,1,1,"white",1,111,19,1,"Asian",4.333333333,5,3.1,3.875,6,6.2,2,5.4,2.5,0.873684210526316,0.873684210526316
"147",147,"06eSCkYeAA",147,12,0,0,1,0,3,"no_touchdown","1.103",2,-1,1,0,-1,"black",2,112,19,1,"Asian",4.333333333,5,3.1,3.875,6,6.2,2,5.4,2.5,0.873684210526316,0.873684210526316
"148",148,"06eSCkYeAA",148,6,0,0,1,0,4,"touchdown","1.719",2,1,1,1,1,"black",2,32,19,1,"Asian",4.333333333,5,3.1,3.875,6,6.2,2,5.4,2.5,0.873684210526316,0.873684210526316
"149",149,"06eSCkYeAA",149,5,0,0,0,1,2,"no_touchdown","3.895",2,1,0,0,1,"white",1,33,19,1,"Asian",4.333333333,5,3.1,3.875,6,6.2,2,5.4,2.5,0.873684210526316,0.873684210526316
"150",150,"06eSCkYeAA",150,3,0,0,1,0,1,"touchdown","5.209",2,1,1,1,1,"white",1,34,19,1,"Asian",4.333333333,5,3.1,3.875,6,6.2,2,5.4,2.5,0.873684210526316,0.873684210526316
"151",151,"06eSCkYeAA",151,1,0,0,1,0,8,"touchdown","1.666",2,1,1,1,1,"black",2,35,19,1,"Asian",4.333333333,5,3.1,3.875,6,6.2,2,5.4,2.5,0.873684210526316,0.873684210526316
"152",152,"06eSCkYeAA",152,10,0,0,1,0,7,"no_touchdown","1.152",2,-1,1,0,-1,"white",1,159,19,1,"Asian",4.333333333,5,3.1,3.875,6,6.2,2,5.4,2.5,0.873684210526316,0.873684210526316
"153",153,"06eSCkYeAA",153,6,0,0,1,0,7,"touchdown","1.698",2,1,1,1,1,"white",1,160,19,1,"Asian",4.333333333,5,3.1,3.875,6,6.2,2,5.4,2.5,0.873684210526316,0.873684210526316
"154",154,"06eSCkYeAA",154,6,0,0,0,1,1,"no_touchdown","1.217",2,1,0,0,1,"white",1,38,19,1,"Asian",4.333333333,5,3.1,3.875,6,6.2,2,5.4,2.5,0.873684210526316,0.873684210526316
"155",155,"06eSCkYeAA",155,5,0,0,1,0,1,"touchdown","1.501",2,1,1,1,1,"white",1,39,19,1,"Asian",4.333333333,5,3.1,3.875,6,6.2,2,5.4,2.5,0.873684210526316,0.873684210526316
"156",156,"06eSCkYeAA",156,5,0,0,1,0,6,"touchdown","1.215",2,1,1,1,1,"white",1,40,19,1,"Asian",4.333333333,5,3.1,3.875,6,6.2,2,5.4,2.5,0.873684210526316,0.873684210526316
"157",157,"06eSCkYeAA",157,3,0,0,1,0,5,"touchdown","3.278",2,1,1,1,1,"black",2,54,19,1,"Asian",4.333333333,5,3.1,3.875,6,6.2,2,5.4,2.5,0.873684210526316,0.873684210526316
"158",158,"06eSCkYeAA",158,1,0,0,1,0,1,"touchdown","3.551",2,1,1,1,1,"white",1,55,19,1,"Asian",4.333333333,5,3.1,3.875,6,6.2,2,5.4,2.5,0.873684210526316,0.873684210526316
"159",159,"06eSCkYeAA",159,2,0,0,1,0,8,"touchdown","2.484",2,1,1,1,1,"black",2,97,19,1,"Asian",4.333333333,5,3.1,3.875,6,6.2,2,5.4,2.5,0.873684210526316,0.873684210526316
"160",160,"06eSCkYeAA",160,13,0,0,1,0,4,"touchdown","4.243",2,0,1,1,1,"black",2,98,19,1,"Asian",4.333333333,5,3.1,3.875,6,6.2,2,5.4,2.5,0.873684210526316,0.873684210526316
"161",161,"06eSCkYeAA",161,1,0,0,1,0,6,"touchdown","4.092",2,1,1,1,1,"white",1,99,19,1,"Asian",4.333333333,5,3.1,3.875,6,6.2,2,5.4,2.5,0.873684210526316,0.873684210526316
"162",162,"06eSCkYeAA",162,11,0,0,1,0,3,"no_touchdown","1.784",2,-1,1,0,-1,"black",2,46,19,1,"Asian",4.333333333,5,3.1,3.875,6,6.2,2,5.4,2.5,0.873684210526316,0.873684210526316
"163",163,"06eSCkYeAA",163,6,0,0,1,0,7,"touchdown","1.777",2,1,1,1,1,"white",1,47,19,1,"Asian",4.333333333,5,3.1,3.875,6,6.2,2,5.4,2.5,0.873684210526316,0.873684210526316
"164",164,"06eSCkYeAA",164,1,0,0,1,0,8,"touchdown","2.363",2,1,1,1,1,"black",2,48,19,1,"Asian",4.333333333,5,3.1,3.875,6,6.2,2,5.4,2.5,0.873684210526316,0.873684210526316
"165",165,"06eSCkYeAA",165,8,0,0,0,1,2,"touchdown","2.184",2,-1,0,1,-1,"white",1,49,19,1,"Asian",4.333333333,5,3.1,3.875,6,6.2,2,5.4,2.5,0.873684210526316,0.873684210526316
"166",166,"06eSCkYeAA",166,10,0,0,1,0,2,"no_touchdown","2.038",2,-1,1,0,-1,"white",1,50,19,1,"Asian",4.333333333,5,3.1,3.875,6,6.2,2,5.4,2.5,0.873684210526316,0.873684210526316
"167",167,"06eSCkYeAA",167,1,1,0,0,0,6,"touchdown","1.742",2,1,1,1,1,"white",1,51,19,1,"Asian",4.333333333,5,3.1,3.875,6,6.2,2,5.4,2.5,0.873684210526316,0.873684210526316
"168",168,"06eSCkYeAA",168,7,0,0,1,0,5,"no_touchdown","1.119",2,-1,1,0,-1,"black",2,52,19,1,"Asian",4.333333333,5,3.1,3.875,6,6.2,2,5.4,2.5,0.873684210526316,0.873684210526316
"169",169,"06eSCkYeAA",169,12,0,0,1,0,4,"no_touchdown","5.286",2,-1,1,0,-1,"black",2,53,19,1,"Asian",4.333333333,5,3.1,3.875,6,6.2,2,5.4,2.5,0.873684210526316,0.873684210526316
"170",170,"06eSCkYeAA",170,3,0,0,1,0,2,"touchdown","3.182",2,1,1,1,1,"white",1,94,19,1,"Asian",4.333333333,5,3.1,3.875,6,6.2,2,5.4,2.5,0.873684210526316,0.873684210526316
"171",171,"06eSCkYeAA",171,7,0,0,1,0,1,"no_touchdown","1.64,",2,-1,1,0,-1,"white",1,95,19,1,"Asian",4.333333333,5,3.1,3.875,6,6.2,2,5.4,2.5,0.873684210526316,0.873684210526316
"172",172,"06eSCkYeAA",172,1,0,0,1,0,8,"touchdown","2.514",2,1,1,1,1,"black",2,96,19,1,"Asian",4.333333333,5,3.1,3.875,6,6.2,2,5.4,2.5,0.873684210526316,0.873684210526316
"173",173,"06eSCkYeAA",173,9,1,0,0,0,4,"touchdown","2.176",2,1,1,1,1,"black",2,102,19,1,"Asian",4.333333333,5,3.1,3.875,6,6.2,2,5.4,2.5,0.873684210526316,0.873684210526316
"174",174,"06eSCkYeAA",174,1,0,0,1,0,3,"touchdown","1.479",2,1,1,1,1,"black",2,103,19,1,"Asian",4.333333333,5,3.1,3.875,6,6.2,2,5.4,2.5,0.873684210526316,0.873684210526316
"175",175,"06eSCkYeAA",175,4,0,0,1,0,7,"no_touchdown","1.206",2,-1,1,0,-1,"white",1,100,19,1,"Asian",4.333333333,5,3.1,3.875,6,6.2,2,5.4,2.5,0.873684210526316,0.873684210526316
"176",176,"06eSCkYeAA",176,9,0,0,1,0,4,"touchdown","2.639",2,1,1,1,1,"black",2,101,19,1,"Asian",4.333333333,5,3.1,3.875,6,6.2,2,5.4,2.5,0.873684210526316,0.873684210526316
"177",177,"06eSCkYeAA",177,2,0,0,1,0,8,"touchdown","2.535",2,1,1,1,1,"black",2,106,19,1,"Asian",4.333333333,5,3.1,3.875,6,6.2,2,5.4,2.5,0.873684210526316,0.873684210526316
"178",178,"06eSCkYeAA",178,10,0,0,1,0,6,"no_touchdown","2.197",2,-1,1,0,-1,"white",1,93,19,1,"Asian",4.333333333,5,3.1,3.875,6,6.2,2,5.4,2.5,0.873684210526316,0.873684210526316
"179",179,"06eSCkYeAA",179,1,0,0,1,0,6,"touchdown","0.03,",2,1,1,1,1,"white",1,104,19,1,"Asian",4.333333333,5,3.1,3.875,6,6.2,2,5.4,2.5,0.873684210526316,0.873684210526316
"180",180,"06eSCkYeAA",180,11,0,0,1,0,2,"no_touchdown","4.457",2,-1,1,0,-1,"white",1,105,19,1,"Asian",4.333333333,5,3.1,3.875,6,6.2,2,5.4,2.5,0.873684210526316,0.873684210526316
"181",181,"06eSCkYeAA",181,6,0,0,1,0,1,"touchdown","3.332",2,1,1,1,1,"white",1,58,19,1,"Asian",4.333333333,5,3.1,3.875,6,6.2,2,5.4,2.5,0.873684210526316,0.873684210526316
"182",182,"06eSCkYeAA",182,8,0,0,1,0,3,"no_touchdown","1.411",2,-1,1,0,-1,"black",2,59,19,1,"Asian",4.333333333,5,3.1,3.875,6,6.2,2,5.4,2.5,0.873684210526316,0.873684210526316
"183",183,"06eSCkYeAA",183,13,0,1,0,0,1,"no_touchdown","3.143",2,0,0,0,1,"white",1,89,19,1,"Asian",4.333333333,5,3.1,3.875,6,6.2,2,5.4,2.5,0.873684210526316,0.873684210526316
"184",184,"06eSCkYeAA",184,10,0,0,1,0,8,"no_touchdown","1.069",2,-1,1,0,-1,"black",2,57,19,1,"Asian",4.333333333,5,3.1,3.875,6,6.2,2,5.4,2.5,0.873684210526316,0.873684210526316
"185",185,"06eSCkYeAA",185,1,1,0,0,0,6,"touchdown","0.965",2,1,1,1,1,"white",1,36,19,1,"Asian",4.333333333,5,3.1,3.875,6,6.2,2,5.4,2.5,0.873684210526316,0.873684210526316
"186",186,"06eSCkYeAA",186,10,0,0,1,0,1,"no_touchdown","2.007",2,-1,1,0,-1,"white",1,37,19,1,"Asian",4.333333333,5,3.1,3.875,6,6.2,2,5.4,2.5,0.873684210526316,0.873684210526316
"187",187,"06eSCkYeAA",187,1,0,0,1,0,5,"touchdown","1.807",2,1,1,1,1,"black",2,92,19,1,"Asian",4.333333333,5,3.1,3.875,6,6.2,2,5.4,2.5,0.873684210526316,0.873684210526316
"188",188,"06eSCkYeAA",188,10,1,0,0,0,3,"no_touchdown","3.512",2,-1,1,0,-1,"black",2,90,19,1,"Asian",4.333333333,5,3.1,3.875,6,6.2,2,5.4,2.5,0.873684210526316,0.873684210526316
"189",189,"06eSCkYeAA",189,9,1,0,0,0,2,"touchdown","1.731",2,1,1,1,1,"white",1,91,19,1,"Asian",4.333333333,5,3.1,3.875,6,6.2,2,5.4,2.5,0.873684210526316,0.873684210526316
"190",190,"06eSCkYeAA",190,10,0,0,0,1,8,"touchdown","1.13,",2,-1,0,1,-1,"black",2,60,19,1,"Asian",4.333333333,5,3.1,3.875,6,6.2,2,5.4,2.5,0.873684210526316,0.873684210526316
"191",191,"0CedSIugZ3",191,3,0,0,1,0,3,"touchdown","2.55,",2,1,1,1,1,"black",2,1,22,2,"Black or African American",4.666666667,5.4,3,2.5,5.6,6.8,5,4.6,1,0.697435897435897,0.697435897435897
"192",192,"0CedSIugZ3",192,2,0,0,0,1,1,"no_touchdown","4.063",2,1,0,0,1,"white",1,2,22,2,"Black or African American",4.666666667,5.4,3,2.5,5.6,6.8,5,4.6,1,0.697435897435897,0.697435897435897
"193",193,"0CedSIugZ3",193,2,0,0,0,1,3,"no_touchdown","1.623",2,1,0,0,1,"black",2,3,22,2,"Black or African American",4.666666667,5.4,3,2.5,5.6,6.8,5,4.6,1,0.697435897435897,0.697435897435897
"194",194,"0CedSIugZ3",194,8,0,0,1,0,1,"no_touchdown","2.271",2,-1,1,0,-1,"white",1,4,22,2,"Black or African American",4.666666667,5.4,3,2.5,5.6,6.8,5,4.6,1,0.697435897435897,0.697435897435897
"195",195,"0CedSIugZ3",195,3,0,1,0,0,3,"no_touchdown","2.136",2,1,0,0,1,"black",2,5,22,2,"Black or African American",4.666666667,5.4,3,2.5,5.6,6.8,5,4.6,1,0.697435897435897,0.697435897435897
"196",196,"0CedSIugZ3",196,12,1,0,0,0,8,"no_touchdown","2.038",2,-1,1,0,-1,"black",2,14,22,2,"Black or African American",4.666666667,5.4,3,2.5,5.6,6.8,5,4.6,1,0.697435897435897,0.697435897435897
"197",197,"0CedSIugZ3",197,14,0,1,0,0,4,"no_touchdown","2.391",2,0,0,0,1,"black",2,15,22,2,"Black or African American",4.666666667,5.4,3,2.5,5.6,6.8,5,4.6,1,0.697435897435897,0.697435897435897
"198",198,"0CedSIugZ3",198,10,0,0,0,1,8,"touchdown","1.464",2,-1,0,1,-1,"black",2,16,22,2,"Black or African American",4.666666667,5.4,3,2.5,5.6,6.8,5,4.6,1,0.697435897435897,0.697435897435897
"199",199,"0CedSIugZ3",199,10,0,0,0,1,6,"touchdown","5.687",2,-1,0,1,-1,"white",1,17,22,2,"Black or African American",4.666666667,5.4,3,2.5,5.6,6.8,5,4.6,1,0.697435897435897,0.697435897435897
"200",200,"0CedSIugZ3",200,14,0,0,0,1,6,"no_touchdown","1.208",2,0,0,0,1,"white",1,18,22,2,"Black or African American",4.666666667,5.4,3,2.5,5.6,6.8,5,4.6,1,0.697435897435897,0.697435897435897
"201",201,"0CedSIugZ3",201,1,0,0,0,1,7,"no_touchdown","1.263",2,1,0,0,1,"white",1,19,22,2,"Black or African American",4.666666667,5.4,3,2.5,5.6,6.8,5,4.6,1,0.697435897435897,0.697435897435897
"202",202,"0CedSIugZ3",202,10,0,0,1,0,5,"no_touchdown","0.849",2,-1,1,0,-1,"black",2,20,22,2,"Black or African American",4.666666667,5.4,3,2.5,5.6,6.8,5,4.6,1,0.697435897435897,0.697435897435897
"203",203,"0CedSIugZ3",203,5,0,0,0,1,5,"no_touchdown","1.126",2,1,0,0,1,"black",2,21,22,2,"Black or African American",4.666666667,5.4,3,2.5,5.6,6.8,5,4.6,1,0.697435897435897,0.697435897435897
"204",204,"0CedSIugZ3",204,3,0,0,0,1,3,"no_touchdown","1.175",2,1,0,0,1,"black",2,22,22,2,"Black or African American",4.666666667,5.4,3,2.5,5.6,6.8,5,4.6,1,0.697435897435897,0.697435897435897
"205",205,"0CedSIugZ3",205,10,1,0,0,0,8,"no_touchdown","0.888",2,-1,1,0,-1,"black",2,23,22,2,"Black or African American",4.666666667,5.4,3,2.5,5.6,6.8,5,4.6,1,0.697435897435897,0.697435897435897
"206",206,"0CedSIugZ3",206,1,0,0,1,0,3,"touchdown","1.194",2,1,1,1,1,"black",2,24,22,2,"Black or African American",4.666666667,5.4,3,2.5,5.6,6.8,5,4.6,1,0.697435897435897,0.697435897435897
"207",207,"0CedSIugZ3",207,11,0,0,1,0,1,"no_touchdown","2.246",2,-1,1,0,-1,"white",1,25,22,2,"Black or African American",4.666666667,5.4,3,2.5,5.6,6.8,5,4.6,1,0.697435897435897,0.697435897435897
"208",208,"0CedSIugZ3",208,5,1,0,0,0,3,"touchdown","1.32,",2,1,1,1,1,"black",2,26,22,2,"Black or African American",4.666666667,5.4,3,2.5,5.6,6.8,5,4.6,1,0.697435897435897,0.697435897435897
"209",209,"0CedSIugZ3",209,7,0,0,0,1,1,"touchdown","1.103",2,-1,0,1,-1,"white",1,27,22,2,"Black or African American",4.666666667,5.4,3,2.5,5.6,6.8,5,4.6,1,0.697435897435897,0.697435897435897
"210",210,"0CedSIugZ3",210,4,0,1,0,0,3,"touchdown","1.135",2,-1,0,1,-1,"black",2,28,22,2,"Black or African American",4.666666667,5.4,3,2.5,5.6,6.8,5,4.6,1,0.697435897435897,0.697435897435897
"211",211,"0CedSIugZ3",211,3,0,0,1,0,6,"touchdown","1.247",2,1,1,1,1,"white",1,29,22,2,"Black or African American",4.666666667,5.4,3,2.5,5.6,6.8,5,4.6,1,0.697435897435897,0.697435897435897
"212",212,"0CedSIugZ3",212,10,0,0,1,0,3,"no_touchdown","1.471",2,-1,1,0,-1,"black",2,30,22,2,"Black or African American",4.666666667,5.4,3,2.5,5.6,6.8,5,4.6,1,0.697435897435897,0.697435897435897
"213",213,"0CedSIugZ3",213,9,0,1,0,0,1,"no_touchdown","1.055",2,1,0,0,1,"white",1,31,22,2,"Black or African American",4.666666667,5.4,3,2.5,5.6,6.8,5,4.6,1,0.697435897435897,0.697435897435897
"214",214,"0CedSIugZ3",214,1,0,0,0,1,1,"no_touchdown","2.639",2,1,0,0,1,"white",1,32,22,2,"Black or African American",4.666666667,5.4,3,2.5,5.6,6.8,5,4.6,1,0.697435897435897,0.697435897435897
"215",215,"0CedSIugZ3",215,2,0,0,1,0,3,"touchdown","1.992",2,1,1,1,1,"black",2,33,22,2,"Black or African American",4.666666667,5.4,3,2.5,5.6,6.8,5,4.6,1,0.697435897435897,0.697435897435897
"216",216,"0CedSIugZ3",216,1,0,0,1,0,3,"touchdown","1.938",2,1,1,1,1,"black",2,34,22,2,"Black or African American",4.666666667,5.4,3,2.5,5.6,6.8,5,4.6,1,0.697435897435897,0.697435897435897
"217",217,"0CedSIugZ3",217,8,0,0,0,1,3,"touchdown","1.685",2,-1,0,1,-1,"black",2,35,22,2,"Black or African American",4.666666667,5.4,3,2.5,5.6,6.8,5,4.6,1,0.697435897435897,0.697435897435897
"218",218,"0CedSIugZ3",218,1,0,0,0,1,8,"no_touchdown","4.639",2,1,0,0,1,"black",2,36,22,2,"Black or African American",4.666666667,5.4,3,2.5,5.6,6.8,5,4.6,1,0.697435897435897,0.697435897435897
"219",219,"0CedSIugZ3",219,6,0,0,0,1,1,"no_touchdown","2.393",2,1,0,0,1,"white",1,37,22,2,"Black or African American",4.666666667,5.4,3,2.5,5.6,6.8,5,4.6,1,0.697435897435897,0.697435897435897
"220",220,"0CedSIugZ3",220,13,0,0,1,0,3,"touchdown","0.918",2,0,1,1,1,"black",2,38,22,2,"Black or African American",4.666666667,5.4,3,2.5,5.6,6.8,5,4.6,1,0.697435897435897,0.697435897435897
"221",221,"0CedSIugZ3",221,7,0,0,0,1,4,"touchdown","1.966",2,-1,0,1,-1,"black",2,39,22,2,"Black or African American",4.666666667,5.4,3,2.5,5.6,6.8,5,4.6,1,0.697435897435897,0.697435897435897
"222",222,"0CedSIugZ3",222,1,0,0,1,0,7,"touchdown","1.08,",2,1,1,1,1,"white",1,40,22,2,"Black or African American",4.666666667,5.4,3,2.5,5.6,6.8,5,4.6,1,0.697435897435897,0.697435897435897
"223",223,"0CedSIugZ3",223,1,0,0,1,0,1,"touchdown","1.168",2,1,1,1,1,"white",1,41,22,2,"Black or African American",4.666666667,5.4,3,2.5,5.6,6.8,5,4.6,1,0.697435897435897,0.697435897435897
"224",224,"0CedSIugZ3",224,6,0,0,0,1,1,"no_touchdown","1.728",2,1,0,0,1,"white",1,42,22,2,"Black or African American",4.666666667,5.4,3,2.5,5.6,6.8,5,4.6,1,0.697435897435897,0.697435897435897
"225",225,"0CedSIugZ3",225,14,0,0,0,1,8,"no_touchdown","0.894",2,0,0,0,1,"black",2,43,22,2,"Black or African American",4.666666667,5.4,3,2.5,5.6,6.8,5,4.6,1,0.697435897435897,0.697435897435897
"226",226,"0CedSIugZ3",226,7,0,0,0,1,1,"touchdown","1.656",2,-1,0,1,-1,"white",1,44,22,2,"Black or African American",4.666666667,5.4,3,2.5,5.6,6.8,5,4.6,1,0.697435897435897,0.697435897435897
"227",227,"0CedSIugZ3",227,3,0,1,0,0,3,"no_touchdown","1.105",2,1,0,0,1,"black",2,45,22,2,"Black or African American",4.666666667,5.4,3,2.5,5.6,6.8,5,4.6,1,0.697435897435897,0.697435897435897
"228",228,"0CedSIugZ3",228,4,0,0,1,0,6,"no_touchdown","2.087",2,-1,1,0,-1,"white",1,6,22,2,"Black or African American",4.666666667,5.4,3,2.5,5.6,6.8,5,4.6,1,0.697435897435897,0.697435897435897
"229",229,"0CedSIugZ3",229,1,0,0,1,0,2,"touchdown","3.039",2,1,1,1,1,"white",1,7,22,2,"Black or African American",4.666666667,5.4,3,2.5,5.6,6.8,5,4.6,1,0.697435897435897,0.697435897435897
"230",230,"0CedSIugZ3",230,13,1,0,0,0,7,"touchdown","2.383",2,0,1,1,1,"white",1,8,22,2,"Black or African American",4.666666667,5.4,3,2.5,5.6,6.8,5,4.6,1,0.697435897435897,0.697435897435897
"231",231,"0CedSIugZ3",231,10,0,0,1,0,5,"no_touchdown","2.367",2,-1,1,0,-1,"black",2,9,22,2,"Black or African American",4.666666667,5.4,3,2.5,5.6,6.8,5,4.6,1,0.697435897435897,0.697435897435897
"232",232,"0CedSIugZ3",232,3,0,0,0,1,3,"no_touchdown","2.847",2,1,0,0,1,"black",2,10,22,2,"Black or African American",4.666666667,5.4,3,2.5,5.6,6.8,5,4.6,1,0.697435897435897,0.697435897435897
"233",233,"0CedSIugZ3",233,1,0,1,0,0,3,"no_touchdown","2.133",2,1,0,0,1,"black",2,11,22,2,"Black or African American",4.666666667,5.4,3,2.5,5.6,6.8,5,4.6,1,0.697435897435897,0.697435897435897
"234",234,"0CedSIugZ3",234,10,0,0,1,0,8,"no_touchdown","1.089",2,-1,1,0,-1,"black",2,12,22,2,"Black or African American",4.666666667,5.4,3,2.5,5.6,6.8,5,4.6,1,0.697435897435897,0.697435897435897
"235",235,"0CedSIugZ3",235,3,0,0,1,0,1,"touchdown","1.991",2,1,1,1,1,"white",1,13,22,2,"Black or African American",4.666666667,5.4,3,2.5,5.6,6.8,5,4.6,1,0.697435897435897,0.697435897435897
"236",236,"0CedSIugZ3",236,2,0,0,1,0,3,"touchdown","1.04,",2,1,1,1,1,"black",2,54,22,2,"Black or African American",4.666666667,5.4,3,2.5,5.6,6.8,5,4.6,1,0.697435897435897,0.697435897435897
"237",237,"0CedSIugZ3",237,6,0,0,1,0,3,"touchdown","0.887",2,1,1,1,1,"black",2,55,22,2,"Black or African American",4.666666667,5.4,3,2.5,5.6,6.8,5,4.6,1,0.697435897435897,0.697435897435897
"238",238,"0CedSIugZ3",238,3,0,0,0,1,7,"no_touchdown","1.431",2,1,0,0,1,"white",1,56,22,2,"Black or African American",4.666666667,5.4,3,2.5,5.6,6.8,5,4.6,1,0.697435897435897,0.697435897435897
"239",239,"0CedSIugZ3",239,13,1,0,0,0,4,"touchdown","0.712",2,0,1,1,1,"black",2,57,22,2,"Black or African American",4.666666667,5.4,3,2.5,5.6,6.8,5,4.6,1,0.697435897435897,0.697435897435897
"240",240,"0CedSIugZ3",240,12,0,0,0,1,7,"touchdown","1.407",2,-1,0,1,-1,"white",1,58,22,2,"Black or African American",4.666666667,5.4,3,2.5,5.6,6.8,5,4.6,1,0.697435897435897,0.697435897435897
"241",241,"0CedSIugZ3",241,7,0,0,0,1,6,"touchdown","0.99,",2,-1,0,1,-1,"white",1,59,22,2,"Black or African American",4.666666667,5.4,3,2.5,5.6,6.8,5,4.6,1,0.697435897435897,0.697435897435897
"242",242,"0CedSIugZ3",242,5,0,0,0,1,4,"no_touchdown","0.785",2,1,0,0,1,"black",2,60,22,2,"Black or African American",4.666666667,5.4,3,2.5,5.6,6.8,5,4.6,1,0.697435897435897,0.697435897435897
"243",243,"0CedSIugZ3",243,7,0,0,1,0,7,"no_touchdown","0.873",2,-1,1,0,-1,"white",1,61,22,2,"Black or African American",4.666666667,5.4,3,2.5,5.6,6.8,5,4.6,1,0.697435897435897,0.697435897435897
"244",244,"0CedSIugZ3",244,7,0,0,1,0,2,"no_touchdown","1.07,",2,-1,1,0,-1,"white",1,62,22,2,"Black or African American",4.666666667,5.4,3,2.5,5.6,6.8,5,4.6,1,0.697435897435897,0.697435897435897
"245",245,"0CedSIugZ3",245,8,0,0,1,0,5,"no_touchdown","2.863",2,-1,1,0,-1,"black",2,63,22,2,"Black or African American",4.666666667,5.4,3,2.5,5.6,6.8,5,4.6,1,0.697435897435897,0.697435897435897
"246",246,"0CedSIugZ3",246,3,0,0,1,0,8,"touchdown","2.146",2,1,1,1,1,"black",2,64,22,2,"Black or African American",4.666666667,5.4,3,2.5,5.6,6.8,5,4.6,1,0.697435897435897,0.697435897435897
"247",247,"0CedSIugZ3",247,12,0,0,1,0,8,"no_touchdown","2.198",2,-1,1,0,-1,"black",2,65,22,2,"Black or African American",4.666666667,5.4,3,2.5,5.6,6.8,5,4.6,1,0.697435897435897,0.697435897435897
"248",248,"0CedSIugZ3",248,13,0,0,1,0,2,"touchdown","1.936",2,0,1,1,1,"white",1,66,22,2,"Black or African American",4.666666667,5.4,3,2.5,5.6,6.8,5,4.6,1,0.697435897435897,0.697435897435897
"249",249,"0CedSIugZ3",249,12,0,0,1,0,3,"no_touchdown","1.455",2,-1,1,0,-1,"black",2,67,22,2,"Black or African American",4.666666667,5.4,3,2.5,5.6,6.8,5,4.6,1,0.697435897435897,0.697435897435897
"250",250,"0CedSIugZ3",250,1,0,0,1,0,2,"touchdown","1.312",2,1,1,1,1,"white",1,68,22,2,"Black or African American",4.666666667,5.4,3,2.5,5.6,6.8,5,4.6,1,0.697435897435897,0.697435897435897
"251",251,"0CedSIugZ3",251,14,0,0,0,1,7,"no_touchdown","2.599",2,0,0,0,1,"white",1,69,22,2,"Black or African American",4.666666667,5.4,3,2.5,5.6,6.8,5,4.6,1,0.697435897435897,0.697435897435897
"252",252,"0CedSIugZ3",252,7,0,0,1,0,5,"no_touchdown","1.15,",2,-1,1,0,-1,"black",2,70,22,2,"Black or African American",4.666666667,5.4,3,2.5,5.6,6.8,5,4.6,1,0.697435897435897,0.697435897435897
"253",253,"0CedSIugZ3",253,9,0,1,0,0,2,"no_touchdown","1.471",2,1,0,0,1,"white",1,71,22,2,"Black or African American",4.666666667,5.4,3,2.5,5.6,6.8,5,4.6,1,0.697435897435897,0.697435897435897
"254",254,"0CedSIugZ3",254,3,0,0,1,0,1,"touchdown","2.055",2,1,1,1,1,"white",1,72,22,2,"Black or African American",4.666666667,5.4,3,2.5,5.6,6.8,5,4.6,1,0.697435897435897,0.697435897435897
"255",255,"0CedSIugZ3",255,3,0,0,1,0,5,"touchdown","2.104",2,1,1,1,1,"black",2,73,22,2,"Black or African American",4.666666667,5.4,3,2.5,5.6,6.8,5,4.6,1,0.697435897435897,0.697435897435897
"256",256,"0CedSIugZ3",256,3,0,0,1,0,4,"touchdown","1.376",2,1,1,1,1,"black",2,74,22,2,"Black or African American",4.666666667,5.4,3,2.5,5.6,6.8,5,4.6,1,0.697435897435897,0.697435897435897
"257",257,"0CedSIugZ3",257,1,0,0,1,0,2,"touchdown","1.583",2,1,1,1,1,"white",1,75,22,2,"Black or African American",4.666666667,5.4,3,2.5,5.6,6.8,5,4.6,1,0.697435897435897,0.697435897435897
"258",258,"0CedSIugZ3",258,7,0,0,1,0,3,"no_touchdown","1.08,",2,-1,1,0,-1,"black",2,76,22,2,"Black or African American",4.666666667,5.4,3,2.5,5.6,6.8,5,4.6,1,0.697435897435897,0.697435897435897
"259",259,"0CedSIugZ3",259,3,0,0,1,0,4,"touchdown","1.96,",2,1,1,1,1,"black",2,77,22,2,"Black or African American",4.666666667,5.4,3,2.5,5.6,6.8,5,4.6,1,0.697435897435897,0.697435897435897
"260",260,"0CedSIugZ3",260,14,0,1,0,0,3,"no_touchdown","2.735",2,0,0,0,1,"black",2,78,22,2,"Black or African American",4.666666667,5.4,3,2.5,5.6,6.8,5,4.6,1,0.697435897435897,0.697435897435897
"261",261,"0CedSIugZ3",261,4,0,0,0,1,2,"touchdown","1.152",2,-1,0,1,-1,"white",1,79,22,2,"Black or African American",4.666666667,5.4,3,2.5,5.6,6.8,5,4.6,1,0.697435897435897,0.697435897435897
"262",262,"0CedSIugZ3",262,14,0,1,0,0,7,"no_touchdown","1.327",2,0,0,0,1,"white",1,80,22,2,"Black or African American",4.666666667,5.4,3,2.5,5.6,6.8,5,4.6,1,0.697435897435897,0.697435897435897
"263",263,"0CedSIugZ3",263,6,0,0,1,0,5,"touchdown","2.575",2,1,1,1,1,"black",2,81,22,2,"Black or African American",4.666666667,5.4,3,2.5,5.6,6.8,5,4.6,1,0.697435897435897,0.697435897435897
"264",264,"0CedSIugZ3",264,5,0,0,1,0,8,"touchdown","1.169",2,1,1,1,1,"black",2,82,22,2,"Black or African American",4.666666667,5.4,3,2.5,5.6,6.8,5,4.6,1,0.697435897435897,0.697435897435897
"265",265,"0CedSIugZ3",265,2,0,0,0,1,5,"no_touchdown","1.087",2,1,0,0,1,"black",2,83,22,2,"Black or African American",4.666666667,5.4,3,2.5,5.6,6.8,5,4.6,1,0.697435897435897,0.697435897435897
"266",266,"0CedSIugZ3",266,4,0,0,1,0,6,"no_touchdown","2.039",2,-1,1,0,-1,"white",1,84,22,2,"Black or African American",4.666666667,5.4,3,2.5,5.6,6.8,5,4.6,1,0.697435897435897,0.697435897435897
"267",267,"0CedSIugZ3",267,2,0,0,0,1,8,"no_touchdown","1.778",2,1,0,0,1,"black",2,85,22,2,"Black or African American",4.666666667,5.4,3,2.5,5.6,6.8,5,4.6,1,0.697435897435897,0.697435897435897
"268",268,"0CedSIugZ3",268,7,0,0,1,0,2,"no_touchdown","1.454",2,-1,1,0,-1,"white",1,86,22,2,"Black or African American",4.666666667,5.4,3,2.5,5.6,6.8,5,4.6,1,0.697435897435897,0.697435897435897
"269",269,"0CedSIugZ3",269,3,1,0,0,0,8,"touchdown","1.52,",2,1,1,1,1,"black",2,87,22,2,"Black or African American",4.666666667,5.4,3,2.5,5.6,6.8,5,4.6,1,0.697435897435897,0.697435897435897
"270",270,"0CedSIugZ3",270,6,0,0,1,0,4,"touchdown","2.296",2,1,1,1,1,"black",2,88,22,2,"Black or African American",4.666666667,5.4,3,2.5,5.6,6.8,5,4.6,1,0.697435897435897,0.697435897435897
"271",271,"0CedSIugZ3",271,10,0,0,1,0,1,"no_touchdown","1.928",2,-1,1,0,-1,"white",1,89,22,2,"Black or African American",4.666666667,5.4,3,2.5,5.6,6.8,5,4.6,1,0.697435897435897,0.697435897435897
"272",272,"0CedSIugZ3",272,11,0,0,0,1,3,"touchdown","1.39,",2,-1,0,1,-1,"black",2,90,22,2,"Black or African American",4.666666667,5.4,3,2.5,5.6,6.8,5,4.6,1,0.697435897435897,0.697435897435897
"273",273,"0CedSIugZ3",273,5,0,0,1,0,1,"touchdown","1.641",2,1,1,1,1,"white",1,91,22,2,"Black or African American",4.666666667,5.4,3,2.5,5.6,6.8,5,4.6,1,0.697435897435897,0.697435897435897
"274",274,"0CedSIugZ3",274,10,0,0,1,0,4,"no_touchdown","1.599",2,-1,1,0,-1,"black",2,92,22,2,"Black or African American",4.666666667,5.4,3,2.5,5.6,6.8,5,4.6,1,0.697435897435897,0.697435897435897
"275",275,"0CedSIugZ3",275,6,0,0,1,0,6,"touchdown","3.238",2,1,1,1,1,"white",1,93,22,2,"Black or African American",4.666666667,5.4,3,2.5,5.6,6.8,5,4.6,1,0.697435897435897,0.697435897435897
"276",276,"0CedSIugZ3",276,1,1,0,0,0,4,"touchdown","3.409",2,1,1,1,1,"black",2,94,22,2,"Black or African American",4.666666667,5.4,3,2.5,5.6,6.8,5,4.6,1,0.697435897435897,0.697435897435897
"277",277,"0CedSIugZ3",277,7,0,0,1,0,1,"no_touchdown","1.936",2,-1,1,0,-1,"white",1,95,22,2,"Black or African American",4.666666667,5.4,3,2.5,5.6,6.8,5,4.6,1,0.697435897435897,0.697435897435897
"278",278,"0CedSIugZ3",278,10,0,0,1,0,3,"no_touchdown","4.303",2,-1,1,0,-1,"black",2,96,22,2,"Black or African American",4.666666667,5.4,3,2.5,5.6,6.8,5,4.6,1,0.697435897435897,0.697435897435897
"279",279,"0CedSIugZ3",279,3,0,0,1,0,3,"touchdown","1.752",2,1,1,1,1,"black",2,97,22,2,"Black or African American",4.666666667,5.4,3,2.5,5.6,6.8,5,4.6,1,0.697435897435897,0.697435897435897
"280",280,"0CedSIugZ3",280,7,0,0,1,0,1,"no_touchdown","1.584",2,-1,1,0,-1,"white",1,98,22,2,"Black or African American",4.666666667,5.4,3,2.5,5.6,6.8,5,4.6,1,0.697435897435897,0.697435897435897
"281",281,"0CedSIugZ3",281,12,0,0,1,0,2,"no_touchdown","3.254",2,-1,1,0,-1,"white",1,99,22,2,"Black or African American",4.666666667,5.4,3,2.5,5.6,6.8,5,4.6,1,0.697435897435897,0.697435897435897
"282",282,"0CedSIugZ3",282,10,0,0,1,0,3,"no_touchdown","1.415",2,-1,1,0,-1,"black",2,100,22,2,"Black or African American",4.666666667,5.4,3,2.5,5.6,6.8,5,4.6,1,0.697435897435897,0.697435897435897
"283",283,"0CedSIugZ3",283,3,0,0,1,0,8,"touchdown","1.719",2,1,1,1,1,"black",2,101,22,2,"Black or African American",4.666666667,5.4,3,2.5,5.6,6.8,5,4.6,1,0.697435897435897,0.697435897435897
"284",284,"0CedSIugZ3",284,5,0,0,1,0,1,"touchdown","1.271",2,1,1,1,1,"white",1,102,22,2,"Black or African American",4.666666667,5.4,3,2.5,5.6,6.8,5,4.6,1,0.697435897435897,0.697435897435897
"285",285,"0CedSIugZ3",285,7,0,0,1,0,6,"no_touchdown","1.015",2,-1,1,0,-1,"white",1,103,22,2,"Black or African American",4.666666667,5.4,3,2.5,5.6,6.8,5,4.6,1,0.697435897435897,0.697435897435897
"286",286,"0CedSIugZ3",286,10,0,0,1,0,6,"no_touchdown","1.399",2,-1,1,0,-1,"white",1,104,22,2,"Black or African American",4.666666667,5.4,3,2.5,5.6,6.8,5,4.6,1,0.697435897435897,0.697435897435897
"287",287,"0CedSIugZ3",287,8,0,0,1,0,2,"no_touchdown","1.872",2,-1,1,0,-1,"white",1,105,22,2,"Black or African American",4.666666667,5.4,3,2.5,5.6,6.8,5,4.6,1,0.697435897435897,0.697435897435897
"288",288,"0CedSIugZ3",288,7,0,0,1,0,6,"no_touchdown","0.968",2,-1,1,0,-1,"white",1,106,22,2,"Black or African American",4.666666667,5.4,3,2.5,5.6,6.8,5,4.6,1,0.697435897435897,0.697435897435897
"289",289,"0CedSIugZ3",289,6,0,0,1,0,4,"touchdown","2.031",2,1,1,1,1,"black",2,107,22,2,"Black or African American",4.666666667,5.4,3,2.5,5.6,6.8,5,4.6,1,0.697435897435897,0.697435897435897
"290",290,"0CedSIugZ3",290,10,0,0,1,0,8,"no_touchdown","2.319",2,-1,1,0,-1,"black",2,108,22,2,"Black or African American",4.666666667,5.4,3,2.5,5.6,6.8,5,4.6,1,0.697435897435897,0.697435897435897
"291",291,"0CedSIugZ3",291,2,0,1,0,0,3,"no_touchdown","1.758",2,1,0,0,1,"black",2,109,22,2,"Black or African American",4.666666667,5.4,3,2.5,5.6,6.8,5,4.6,1,0.697435897435897,0.697435897435897
"292",292,"0CedSIugZ3",292,1,0,0,1,0,3,"touchdown","2.417",2,1,1,1,1,"black",2,110,22,2,"Black or African American",4.666666667,5.4,3,2.5,5.6,6.8,5,4.6,1,0.697435897435897,0.697435897435897
"293",293,"0CedSIugZ3",293,3,0,0,1,0,1,"touchdown","2.248",2,1,1,1,1,"white",1,111,22,2,"Black or African American",4.666666667,5.4,3,2.5,5.6,6.8,5,4.6,1,0.697435897435897,0.697435897435897
"294",294,"0CedSIugZ3",294,5,0,0,1,0,4,"touchdown","5.256",2,1,1,1,1,"black",2,112,22,2,"Black or African American",4.666666667,5.4,3,2.5,5.6,6.8,5,4.6,1,0.697435897435897,0.697435897435897
"295",295,"0CedSIugZ3",295,12,0,0,1,0,6,"no_touchdown","2.312",2,-1,1,0,-1,"white",1,113,22,2,"Black or African American",4.666666667,5.4,3,2.5,5.6,6.8,5,4.6,1,0.697435897435897,0.697435897435897
"296",296,"0CedSIugZ3",296,14,0,0,0,1,1,"no_touchdown","1.775",2,0,0,0,1,"white",1,114,22,2,"Black or African American",4.666666667,5.4,3,2.5,5.6,6.8,5,4.6,1,0.697435897435897,0.697435897435897
"297",297,"0CedSIugZ3",297,10,0,0,1,0,7,"no_touchdown","3.015",2,-1,1,0,-1,"white",1,115,22,2,"Black or African American",4.666666667,5.4,3,2.5,5.6,6.8,5,4.6,1,0.697435897435897,0.697435897435897
"298",298,"0CedSIugZ3",298,2,0,0,0,1,1,"no_touchdown","1.481",2,1,0,0,1,"white",1,116,22,2,"Black or African American",4.666666667,5.4,3,2.5,5.6,6.8,5,4.6,1,0.697435897435897,0.697435897435897
"299",299,"0CedSIugZ3",299,9,0,1,0,0,7,"no_touchdown","1.558",2,1,0,0,1,"white",1,117,22,2,"Black or African American",4.666666667,5.4,3,2.5,5.6,6.8,5,4.6,1,0.697435897435897,0.697435897435897
"300",300,"0CedSIugZ3",300,9,1,0,0,0,5,"touchdown","3.001",2,1,1,1,1,"black",2,118,22,2,"Black or African American",4.666666667,5.4,3,2.5,5.6,6.8,5,4.6,1,0.697435897435897,0.697435897435897
"301",301,"0CedSIugZ3",301,7,0,0,1,0,2,"no_touchdown","1.417",2,-1,1,0,-1,"white",1,119,22,2,"Black or African American",4.666666667,5.4,3,2.5,5.6,6.8,5,4.6,1,0.697435897435897,0.697435897435897
"302",302,"0CedSIugZ3",302,6,0,0,1,0,8,"touchdown","2.213",2,1,1,1,1,"black",2,120,22,2,"Black or African American",4.666666667,5.4,3,2.5,5.6,6.8,5,4.6,1,0.697435897435897,0.697435897435897
"303",303,"0CedSIugZ3",303,1,0,0,1,0,5,"touchdown","4.303",2,1,1,1,1,"black",2,121,22,2,"Black or African American",4.666666667,5.4,3,2.5,5.6,6.8,5,4.6,1,0.697435897435897,0.697435897435897
"304",304,"0CedSIugZ3",304,1,0,0,1,0,6,"touchdown","1.303",2,1,1,1,1,"white",1,122,22,2,"Black or African American",4.666666667,5.4,3,2.5,5.6,6.8,5,4.6,1,0.697435897435897,0.697435897435897
"305",305,"0CedSIugZ3",305,13,1,0,0,0,7,"touchdown","2.063",2,0,1,1,1,"white",1,123,22,2,"Black or African American",4.666666667,5.4,3,2.5,5.6,6.8,5,4.6,1,0.697435897435897,0.697435897435897
"306",306,"0CedSIugZ3",306,6,0,0,1,0,3,"touchdown","1.559",2,1,1,1,1,"black",2,124,22,2,"Black or African American",4.666666667,5.4,3,2.5,5.6,6.8,5,4.6,1,0.697435897435897,0.697435897435897
"307",307,"0CedSIugZ3",307,7,0,0,1,0,8,"no_touchdown","2.233",2,-1,1,0,-1,"black",2,125,22,2,"Black or African American",4.666666667,5.4,3,2.5,5.6,6.8,5,4.6,1,0.697435897435897,0.697435897435897
"308",308,"0CedSIugZ3",308,4,0,0,0,1,4,"touchdown","1.417",2,-1,0,1,-1,"black",2,126,22,2,"Black or African American",4.666666667,5.4,3,2.5,5.6,6.8,5,4.6,1,0.697435897435897,0.697435897435897
"309",309,"0CedSIugZ3",309,11,0,1,0,0,4,"touchdown","2.365",2,-1,0,1,-1,"black",2,127,22,2,"Black or African American",4.666666667,5.4,3,2.5,5.6,6.8,5,4.6,1,0.697435897435897,0.697435897435897
"310",310,"0CedSIugZ3",310,3,1,0,0,0,2,"touchdown","1.96,",2,1,1,1,1,"white",1,128,22,2,"Black or African American",4.666666667,5.4,3,2.5,5.6,6.8,5,4.6,1,0.697435897435897,0.697435897435897
"311",311,"0CedSIugZ3",311,3,0,0,1,0,7,"touchdown","1.728",2,1,1,1,1,"white",1,129,22,2,"Black or African American",4.666666667,5.4,3,2.5,5.6,6.8,5,4.6,1,0.697435897435897,0.697435897435897
"312",312,"0CedSIugZ3",312,5,0,0,1,0,8,"touchdown","1.816",2,1,1,1,1,"black",2,130,22,2,"Black or African American",4.666666667,5.4,3,2.5,5.6,6.8,5,4.6,1,0.697435897435897,0.697435897435897
"313",313,"0CedSIugZ3",313,13,0,0,1,0,4,"touchdown","1.44,",2,0,1,1,1,"black",2,131,22,2,"Black or African American",4.666666667,5.4,3,2.5,5.6,6.8,5,4.6,1,0.697435897435897,0.697435897435897
"314",314,"0CedSIugZ3",314,11,0,0,0,1,4,"touchdown","2.927",2,-1,0,1,-1,"black",2,132,22,2,"Black or African American",4.666666667,5.4,3,2.5,5.6,6.8,5,4.6,1,0.697435897435897,0.697435897435897
"315",315,"0CedSIugZ3",315,8,0,0,1,0,3,"no_touchdown","1.528",2,-1,1,0,-1,"black",2,133,22,2,"Black or African American",4.666666667,5.4,3,2.5,5.6,6.8,5,4.6,1,0.697435897435897,0.697435897435897
"316",316,"0CedSIugZ3",316,2,0,0,1,0,1,"touchdown","1.311",2,1,1,1,1,"white",1,134,22,2,"Black or African American",4.666666667,5.4,3,2.5,5.6,6.8,5,4.6,1,0.697435897435897,0.697435897435897
"317",317,"0CedSIugZ3",317,5,0,0,1,0,6,"touchdown","5.646",2,1,1,1,1,"white",1,135,22,2,"Black or African American",4.666666667,5.4,3,2.5,5.6,6.8,5,4.6,1,0.697435897435897,0.697435897435897
"318",318,"0CedSIugZ3",318,12,0,0,0,1,8,"touchdown","1.343",2,-1,0,1,-1,"black",2,136,22,2,"Black or African American",4.666666667,5.4,3,2.5,5.6,6.8,5,4.6,1,0.697435897435897,0.697435897435897
"319",319,"0CedSIugZ3",319,3,0,0,1,0,1,"touchdown","2.063",2,1,1,1,1,"white",1,137,22,2,"Black or African American",4.666666667,5.4,3,2.5,5.6,6.8,5,4.6,1,0.697435897435897,0.697435897435897
"320",320,"0CedSIugZ3",320,10,0,0,1,0,4,"no_touchdown","2.76,",2,-1,1,0,-1,"black",2,138,22,2,"Black or African American",4.666666667,5.4,3,2.5,5.6,6.8,5,4.6,1,0.697435897435897,0.697435897435897
"321",321,"0CedSIugZ3",321,3,0,0,1,0,2,"touchdown","1.432",2,1,1,1,1,"white",1,139,22,2,"Black or African American",4.666666667,5.4,3,2.5,5.6,6.8,5,4.6,1,0.697435897435897,0.697435897435897
"322",322,"0CedSIugZ3",322,10,0,0,1,0,3,"no_touchdown","1.376",2,-1,1,0,-1,"black",2,140,22,2,"Black or African American",4.666666667,5.4,3,2.5,5.6,6.8,5,4.6,1,0.697435897435897,0.697435897435897
"323",323,"0CedSIugZ3",323,10,0,0,1,0,4,"no_touchdown","1.161",2,-1,1,0,-1,"black",2,141,22,2,"Black or African American",4.666666667,5.4,3,2.5,5.6,6.8,5,4.6,1,0.697435897435897,0.697435897435897
"324",324,"0CedSIugZ3",324,7,0,0,1,0,8,"no_touchdown","1.567",2,-1,1,0,-1,"black",2,142,22,2,"Black or African American",4.666666667,5.4,3,2.5,5.6,6.8,5,4.6,1,0.697435897435897,0.697435897435897
"325",325,"0CedSIugZ3",325,7,0,0,1,0,1,"no_touchdown","1.28,",2,-1,1,0,-1,"white",1,143,22,2,"Black or African American",4.666666667,5.4,3,2.5,5.6,6.8,5,4.6,1,0.697435897435897,0.697435897435897
"326",326,"0CedSIugZ3",326,12,1,0,0,0,2,"no_touchdown","2.104",2,-1,1,0,-1,"white",1,144,22,2,"Black or African American",4.666666667,5.4,3,2.5,5.6,6.8,5,4.6,1,0.697435897435897,0.697435897435897
"327",327,"0CedSIugZ3",327,12,0,0,1,0,8,"no_touchdown","1.687",2,-1,1,0,-1,"black",2,145,22,2,"Black or African American",4.666666667,5.4,3,2.5,5.6,6.8,5,4.6,1,0.697435897435897,0.697435897435897
"328",328,"0CedSIugZ3",328,3,0,0,1,0,7,"touchdown","3.639",2,1,1,1,1,"white",1,146,22,2,"Black or African American",4.666666667,5.4,3,2.5,5.6,6.8,5,4.6,1,0.697435897435897,0.697435897435897
"329",329,"0CedSIugZ3",329,4,0,0,1,0,3,"no_touchdown","1.681",2,-1,1,0,-1,"black",2,147,22,2,"Black or African American",4.666666667,5.4,3,2.5,5.6,6.8,5,4.6,1,0.697435897435897,0.697435897435897
"330",330,"0CedSIugZ3",330,9,0,1,0,0,5,"no_touchdown","2.343",2,1,0,0,1,"black",2,148,22,2,"Black or African American",4.666666667,5.4,3,2.5,5.6,6.8,5,4.6,1,0.697435897435897,0.697435897435897
"331",331,"0CedSIugZ3",331,3,0,0,1,0,4,"touchdown","1.721",2,1,1,1,1,"black",2,149,22,2,"Black or African American",4.666666667,5.4,3,2.5,5.6,6.8,5,4.6,1,0.697435897435897,0.697435897435897
"332",332,"0CedSIugZ3",332,7,0,0,1,0,7,"no_touchdown","3.376",2,-1,1,0,-1,"white",1,150,22,2,"Black or African American",4.666666667,5.4,3,2.5,5.6,6.8,5,4.6,1,0.697435897435897,0.697435897435897
"333",333,"0CedSIugZ3",333,3,0,0,1,0,3,"touchdown","2.44,",2,1,1,1,1,"black",2,151,22,2,"Black or African American",4.666666667,5.4,3,2.5,5.6,6.8,5,4.6,1,0.697435897435897,0.697435897435897
"334",334,"0CedSIugZ3",334,8,0,0,1,0,2,"no_touchdown","1.975",2,-1,1,0,-1,"white",1,152,22,2,"Black or African American",4.666666667,5.4,3,2.5,5.6,6.8,5,4.6,1,0.697435897435897,0.697435897435897
"335",335,"0CedSIugZ3",335,12,0,0,1,0,6,"no_touchdown","1.327",2,-1,1,0,-1,"white",1,153,22,2,"Black or African American",4.666666667,5.4,3,2.5,5.6,6.8,5,4.6,1,0.697435897435897,0.697435897435897
"336",336,"0CedSIugZ3",336,11,0,0,0,1,7,"touchdown","2.151",2,-1,0,1,-1,"white",1,154,22,2,"Black or African American",4.666666667,5.4,3,2.5,5.6,6.8,5,4.6,1,0.697435897435897,0.697435897435897
"337",337,"0CedSIugZ3",337,7,1,0,0,0,5,"no_touchdown","1.256",2,-1,1,0,-1,"black",2,155,22,2,"Black or African American",4.666666667,5.4,3,2.5,5.6,6.8,5,4.6,1,0.697435897435897,0.697435897435897
"338",338,"0CedSIugZ3",338,5,1,0,0,0,8,"touchdown","1.399",2,1,1,1,1,"black",2,156,22,2,"Black or African American",4.666666667,5.4,3,2.5,5.6,6.8,5,4.6,1,0.697435897435897,0.697435897435897
"339",339,"0CedSIugZ3",339,4,0,0,0,1,3,"touchdown","1.008",2,-1,0,1,-1,"black",2,157,22,2,"Black or African American",4.666666667,5.4,3,2.5,5.6,6.8,5,4.6,1,0.697435897435897,0.697435897435897
"340",340,"0CedSIugZ3",340,11,0,0,0,1,8,"touchdown","2.537",2,-1,0,1,-1,"black",2,158,22,2,"Black or African American",4.666666667,5.4,3,2.5,5.6,6.8,5,4.6,1,0.697435897435897,0.697435897435897
"341",341,"0CedSIugZ3",341,12,0,0,1,0,6,"no_touchdown","1.993",2,-1,1,0,-1,"white",1,159,22,2,"Black or African American",4.666666667,5.4,3,2.5,5.6,6.8,5,4.6,1,0.697435897435897,0.697435897435897
"342",342,"0CedSIugZ3",342,1,1,0,0,0,1,"touchdown","1.278",2,1,1,1,1,"white",1,160,22,2,"Black or African American",4.666666667,5.4,3,2.5,5.6,6.8,5,4.6,1,0.697435897435897,0.697435897435897
"343",343,"0CedSIugZ3",343,6,0,0,1,0,8,"touchdown","2.886",2,1,1,1,1,"black",2,161,22,2,"Black or African American",4.666666667,5.4,3,2.5,5.6,6.8,5,4.6,1,0.697435897435897,0.697435897435897
"344",344,"0CedSIugZ3",344,12,0,0,1,0,8,"no_touchdown","1.911",2,-1,1,0,-1,"black",2,162,22,2,"Black or African American",4.666666667,5.4,3,2.5,5.6,6.8,5,4.6,1,0.697435897435897,0.697435897435897
"345",345,"0CedSIugZ3",345,3,0,0,1,0,3,"touchdown","1.696",2,1,1,1,1,"black",2,163,22,2,"Black or African American",4.666666667,5.4,3,2.5,5.6,6.8,5,4.6,1,0.697435897435897,0.697435897435897
"346",346,"0CedSIugZ3",346,11,0,1,0,0,6,"touchdown","2.255",2,-1,0,1,-1,"white",1,164,22,2,"Black or African American",4.666666667,5.4,3,2.5,5.6,6.8,5,4.6,1,0.697435897435897,0.697435897435897
"347",347,"0CedSIugZ3",347,8,0,0,1,0,3,"no_touchdown","1.071",2,-1,1,0,-1,"black",2,165,22,2,"Black or African American",4.666666667,5.4,3,2.5,5.6,6.8,5,4.6,1,0.697435897435897,0.697435897435897
"348",348,"0CedSIugZ3",348,11,0,0,0,1,5,"touchdown","1.559",2,-1,0,1,-1,"black",2,166,22,2,"Black or African American",4.666666667,5.4,3,2.5,5.6,6.8,5,4.6,1,0.697435897435897,0.697435897435897
"349",349,"0CedSIugZ3",349,10,0,0,1,0,6,"no_touchdown","1.248",2,-1,1,0,-1,"white",1,46,22,2,"Black or African American",4.666666667,5.4,3,2.5,5.6,6.8,5,4.6,1,0.697435897435897,0.697435897435897
"350",350,"0CedSIugZ3",350,2,0,0,1,0,8,"touchdown","1.408",2,1,1,1,1,"black",2,47,22,2,"Black or African American",4.666666667,5.4,3,2.5,5.6,6.8,5,4.6,1,0.697435897435897,0.697435897435897
"351",351,"0CedSIugZ3",351,7,0,0,0,1,2,"touchdown","2.656",2,-1,0,1,-1,"white",1,48,22,2,"Black or African American",4.666666667,5.4,3,2.5,5.6,6.8,5,4.6,1,0.697435897435897,0.697435897435897
"352",352,"0CedSIugZ3",352,6,0,0,0,1,2,"no_touchdown","2.263",2,1,0,0,1,"white",1,49,22,2,"Black or African American",4.666666667,5.4,3,2.5,5.6,6.8,5,4.6,1,0.697435897435897,0.697435897435897
"353",353,"0CedSIugZ3",353,5,0,0,0,1,2,"no_touchdown","2.309",2,1,0,0,1,"white",1,50,22,2,"Black or African American",4.666666667,5.4,3,2.5,5.6,6.8,5,4.6,1,0.697435897435897,0.697435897435897
"354",354,"0CedSIugZ3",354,13,0,0,0,1,8,"no_touchdown","1.121",2,0,0,0,1,"black",2,51,22,2,"Black or African American",4.666666667,5.4,3,2.5,5.6,6.8,5,4.6,1,0.697435897435897,0.697435897435897
"355",355,"0CedSIugZ3",355,13,0,1,0,0,8,"no_touchdown","1.816",2,0,0,0,1,"black",2,52,22,2,"Black or African American",4.666666667,5.4,3,2.5,5.6,6.8,5,4.6,1,0.697435897435897,0.697435897435897
"356",356,"0CedSIugZ3",356,1,0,0,0,1,5,"no_touchdown","1.438",2,1,0,0,1,"black",2,53,22,2,"Black or African American",4.666666667,5.4,3,2.5,5.6,6.8,5,4.6,1,0.697435897435897,0.697435897435897
"357",357,"0CedSIugZ3",357,12,0,0,1,0,3,"no_touchdown","2.031",2,-1,1,0,-1,"black",2,174,22,2,"Black or African American",4.666666667,5.4,3,2.5,5.6,6.8,5,4.6,1,0.697435897435897,0.697435897435897
"358",358,"0CedSIugZ3",358,12,0,0,1,0,1,"no_touchdown","1.208",2,-1,1,0,-1,"white",1,175,22,2,"Black or African American",4.666666667,5.4,3,2.5,5.6,6.8,5,4.6,1,0.697435897435897,0.697435897435897
"359",359,"0CedSIugZ3",359,8,0,0,1,0,7,"no_touchdown","1.063",2,-1,1,0,-1,"white",1,176,22,2,"Black or African American",4.666666667,5.4,3,2.5,5.6,6.8,5,4.6,1,0.697435897435897,0.697435897435897
"360",360,"0CedSIugZ3",360,1,0,0,1,0,4,"touchdown","1.328",2,1,1,1,1,"black",2,177,22,2,"Black or African American",4.666666667,5.4,3,2.5,5.6,6.8,5,4.6,1,0.697435897435897,0.697435897435897
"361",361,"0CedSIugZ3",361,10,0,0,1,0,3,"no_touchdown","1.486",2,-1,1,0,-1,"black",2,178,22,2,"Black or African American",4.666666667,5.4,3,2.5,5.6,6.8,5,4.6,1,0.697435897435897,0.697435897435897
"362",362,"0CedSIugZ3",362,3,0,0,1,0,2,"touchdown","1.52,",2,1,1,1,1,"white",1,179,22,2,"Black or African American",4.666666667,5.4,3,2.5,5.6,6.8,5,4.6,1,0.697435897435897,0.697435897435897
"363",363,"0CedSIugZ3",363,1,0,0,1,0,3,"touchdown","1.816",2,1,1,1,1,"black",2,180,22,2,"Black or African American",4.666666667,5.4,3,2.5,5.6,6.8,5,4.6,1,0.697435897435897,0.697435897435897
"364",364,"0CedSIugZ3",364,3,0,0,1,0,7,"touchdown","1.431",2,1,1,1,1,"white",1,181,22,2,"Black or African American",4.666666667,5.4,3,2.5,5.6,6.8,5,4.6,1,0.697435897435897,0.697435897435897
"365",365,"0CedSIugZ3",365,1,0,0,1,0,5,"touchdown","1.504",2,1,1,1,1,"black",2,182,22,2,"Black or African American",4.666666667,5.4,3,2.5,5.6,6.8,5,4.6,1,0.697435897435897,0.697435897435897
"366",366,"0CedSIugZ3",366,6,0,0,0,1,7,"no_touchdown","1.688",2,1,0,0,1,"white",1,183,22,2,"Black or African American",4.666666667,5.4,3,2.5,5.6,6.8,5,4.6,1,0.697435897435897,0.697435897435897
"367",367,"0CedSIugZ3",367,11,1,0,0,0,2,"no_touchdown","1.418",2,-1,1,0,-1,"white",1,184,22,2,"Black or African American",4.666666667,5.4,3,2.5,5.6,6.8,5,4.6,1,0.697435897435897,0.697435897435897
"368",368,"0CedSIugZ3",368,3,0,0,1,0,3,"touchdown","1.871",2,1,1,1,1,"black",2,185,22,2,"Black or African American",4.666666667,5.4,3,2.5,5.6,6.8,5,4.6,1,0.697435897435897,0.697435897435897
"369",369,"0CedSIugZ3",369,4,0,0,1,0,6,"no_touchdown","0.238",2,-1,1,0,-1,"white",1,186,22,2,"Black or African American",4.666666667,5.4,3,2.5,5.6,6.8,5,4.6,1,0.697435897435897,0.697435897435897
"370",370,"0CedSIugZ3",370,7,0,0,1,0,3,"no_touchdown","1.169",2,-1,1,0,-1,"black",2,187,22,2,"Black or African American",4.666666667,5.4,3,2.5,5.6,6.8,5,4.6,1,0.697435897435897,0.697435897435897
"371",371,"0CedSIugZ3",371,6,0,0,1,0,2,"touchdown","1.271",2,1,1,1,1,"white",1,188,22,2,"Black or African American",4.666666667,5.4,3,2.5,5.6,6.8,5,4.6,1,0.697435897435897,0.697435897435897
"372",372,"0CedSIugZ3",372,3,0,0,1,0,1,"touchdown","1.318",2,1,1,1,1,"white",1,189,22,2,"Black or African American",4.666666667,5.4,3,2.5,5.6,6.8,5,4.6,1,0.697435897435897,0.697435897435897
"373",373,"0CedSIugZ3",373,10,0,0,1,0,7,"no_touchdown","1.495",2,-1,1,0,-1,"white",1,190,22,2,"Black or African American",4.666666667,5.4,3,2.5,5.6,6.8,5,4.6,1,0.697435897435897,0.697435897435897
"374",374,"0CedSIugZ3",374,2,0,0,0,1,1,"no_touchdown","0.928",2,1,0,0,1,"white",1,191,22,2,"Black or African American",4.666666667,5.4,3,2.5,5.6,6.8,5,4.6,1,0.697435897435897,0.697435897435897
"375",375,"0CedSIugZ3",375,3,0,0,1,0,7,"touchdown","1.735",2,1,1,1,1,"white",1,192,22,2,"Black or African American",4.666666667,5.4,3,2.5,5.6,6.8,5,4.6,1,0.697435897435897,0.697435897435897
"376",376,"0CedSIugZ3",376,7,0,0,1,0,5,"no_touchdown","1.129",2,-1,1,0,-1,"black",2,193,22,2,"Black or African American",4.666666667,5.4,3,2.5,5.6,6.8,5,4.6,1,0.697435897435897,0.697435897435897
"377",377,"0CedSIugZ3",377,8,0,0,1,0,2,"no_touchdown","0.879",2,-1,1,0,-1,"white",1,194,22,2,"Black or African American",4.666666667,5.4,3,2.5,5.6,6.8,5,4.6,1,0.697435897435897,0.697435897435897
"378",378,"0CedSIugZ3",378,10,0,0,1,0,8,"no_touchdown","2.001",2,-1,1,0,-1,"black",2,195,22,2,"Black or African American",4.666666667,5.4,3,2.5,5.6,6.8,5,4.6,1,0.697435897435897,0.697435897435897
"379",379,"0CedSIugZ3",379,12,1,0,0,0,5,"no_touchdown","0.976",2,-1,1,0,-1,"black",2,167,22,2,"Black or African American",4.666666667,5.4,3,2.5,5.6,6.8,5,4.6,1,0.697435897435897,0.697435897435897
"380",380,"0CedSIugZ3",380,11,0,1,0,0,6,"touchdown","1.662",2,-1,0,1,-1,"white",1,168,22,2,"Black or African American",4.666666667,5.4,3,2.5,5.6,6.8,5,4.6,1,0.697435897435897,0.697435897435897
"381",381,"0CedSIugZ3",381,12,0,0,1,0,7,"no_touchdown","1.359",2,-1,1,0,-1,"white",1,169,22,2,"Black or African American",4.666666667,5.4,3,2.5,5.6,6.8,5,4.6,1,0.697435897435897,0.697435897435897
"382",382,"0CedSIugZ3",382,1,0,0,1,0,5,"touchdown","1.745",2,1,1,1,1,"black",2,170,22,2,"Black or African American",4.666666667,5.4,3,2.5,5.6,6.8,5,4.6,1,0.697435897435897,0.697435897435897
"383",383,"0CedSIugZ3",383,11,1,0,0,0,6,"no_touchdown","1.791",2,-1,1,0,-1,"white",1,171,22,2,"Black or African American",4.666666667,5.4,3,2.5,5.6,6.8,5,4.6,1,0.697435897435897,0.697435897435897
"384",384,"0CedSIugZ3",384,13,0,0,1,0,4,"touchdown","1.535",2,0,1,1,1,"black",2,172,22,2,"Black or African American",4.666666667,5.4,3,2.5,5.6,6.8,5,4.6,1,0.697435897435897,0.697435897435897
"385",385,"0CedSIugZ3",385,1,0,0,1,0,5,"touchdown","1.375",2,1,1,1,1,"black",2,173,22,2,"Black or African American",4.666666667,5.4,3,2.5,5.6,6.8,5,4.6,1,0.697435897435897,0.697435897435897
"386",386,"17jDHAJFVs",386,3,0,0,0,1,1,"no_touchdown","1.722",2,1,0,0,1,"white",1,4,19,2,"White",3.666666667,NA,4.7,4,6.4,5.8,3.333333333,4.4,2.333333333,0.808080808080808,0.808080808080808
"387",387,"17jDHAJFVs",387,11,0,0,1,0,2,"no_touchdown","1.213",2,-1,1,0,-1,"white",1,6,19,2,"White",3.666666667,NA,4.7,4,6.4,5.8,3.333333333,4.4,2.333333333,0.808080808080808,0.808080808080808
"388",388,"17jDHAJFVs",388,8,0,1,0,0,1,"touchdown","1.239",2,-1,0,1,-1,"white",1,7,19,2,"White",3.666666667,NA,4.7,4,6.4,5.8,3.333333333,4.4,2.333333333,0.808080808080808,0.808080808080808
"389",389,"17jDHAJFVs",389,12,0,0,1,0,5,"no_touchdown","2.039",2,-1,1,0,-1,"black",2,8,19,2,"White",3.666666667,NA,4.7,4,6.4,5.8,3.333333333,4.4,2.333333333,0.808080808080808,0.808080808080808
"390",390,"17jDHAJFVs",390,13,0,0,0,1,2,"no_touchdown","2.311",2,0,0,0,1,"white",1,5,19,2,"White",3.666666667,NA,4.7,4,6.4,5.8,3.333333333,4.4,2.333333333,0.808080808080808,0.808080808080808
"391",391,"17jDHAJFVs",391,1,0,0,0,1,2,"no_touchdown","1.399",2,1,0,0,1,"white",1,1,19,2,"White",3.666666667,NA,4.7,4,6.4,5.8,3.333333333,4.4,2.333333333,0.808080808080808,0.808080808080808
"392",392,"17jDHAJFVs",392,12,0,0,1,0,5,"no_touchdown","1.58,",2,-1,1,0,-1,"black",2,2,19,2,"White",3.666666667,NA,4.7,4,6.4,5.8,3.333333333,4.4,2.333333333,0.808080808080808,0.808080808080808
"393",393,"17jDHAJFVs",393,1,0,0,1,0,4,"touchdown","1.42,",2,1,1,1,1,"black",2,3,19,2,"White",3.666666667,NA,4.7,4,6.4,5.8,3.333333333,4.4,2.333333333,0.808080808080808,0.808080808080808
"394",394,"17jDHAJFVs",394,6,0,0,0,1,1,"no_touchdown","1.897",2,1,0,0,1,"white",1,17,19,2,"White",3.666666667,NA,4.7,4,6.4,5.8,3.333333333,4.4,2.333333333,0.808080808080808,0.808080808080808
"395",395,"17jDHAJFVs",395,3,0,0,1,0,8,"touchdown","3.074",2,1,1,1,1,"black",2,18,19,2,"White",3.666666667,NA,4.7,4,6.4,5.8,3.333333333,4.4,2.333333333,0.808080808080808,0.808080808080808
"396",396,"17jDHAJFVs",396,4,0,0,1,0,6,"no_touchdown","2.38,",2,-1,1,0,-1,"white",1,19,19,2,"White",3.666666667,NA,4.7,4,6.4,5.8,3.333333333,4.4,2.333333333,0.808080808080808,0.808080808080808
"397",397,"17jDHAJFVs",397,7,0,0,1,0,2,"no_touchdown","1.538",2,-1,1,0,-1,"white",1,20,19,2,"White",3.666666667,NA,4.7,4,6.4,5.8,3.333333333,4.4,2.333333333,0.808080808080808,0.808080808080808
"398",398,"17jDHAJFVs",398,7,0,0,1,0,7,"no_touchdown","0.94,",2,-1,1,0,-1,"white",1,21,19,2,"White",3.666666667,NA,4.7,4,6.4,5.8,3.333333333,4.4,2.333333333,0.808080808080808,0.808080808080808
"399",399,"17jDHAJFVs",399,6,0,0,0,1,1,"no_touchdown","1.271",2,1,0,0,1,"white",1,9,19,2,"White",3.666666667,NA,4.7,4,6.4,5.8,3.333333333,4.4,2.333333333,0.808080808080808,0.808080808080808
"400",400,"17jDHAJFVs",400,3,0,0,1,0,4,"touchdown","2.345",2,1,1,1,1,"black",2,10,19,2,"White",3.666666667,NA,4.7,4,6.4,5.8,3.333333333,4.4,2.333333333,0.808080808080808,0.808080808080808
"401",401,"17jDHAJFVs",401,6,0,0,0,1,4,"no_touchdown","2.451",2,1,0,0,1,"black",2,11,19,2,"White",3.666666667,NA,4.7,4,6.4,5.8,3.333333333,4.4,2.333333333,0.808080808080808,0.808080808080808
"402",402,"17jDHAJFVs",402,3,0,0,1,0,2,"touchdown","3.776",2,1,1,1,1,"white",1,12,19,2,"White",3.666666667,NA,4.7,4,6.4,5.8,3.333333333,4.4,2.333333333,0.808080808080808,0.808080808080808
"403",403,"17jDHAJFVs",403,1,0,0,0,1,7,"no_touchdown","1.578",2,1,0,0,1,"white",1,13,19,2,"White",3.666666667,NA,4.7,4,6.4,5.8,3.333333333,4.4,2.333333333,0.808080808080808,0.808080808080808
"404",404,"17jDHAJFVs",404,9,0,0,0,1,2,"no_touchdown","1.134",2,1,0,0,1,"white",1,14,19,2,"White",3.666666667,NA,4.7,4,6.4,5.8,3.333333333,4.4,2.333333333,0.808080808080808,0.808080808080808
"405",405,"17jDHAJFVs",405,13,0,1,0,0,2,"no_touchdown","2.197",2,0,0,0,1,"white",1,15,19,2,"White",3.666666667,NA,4.7,4,6.4,5.8,3.333333333,4.4,2.333333333,0.808080808080808,0.808080808080808
"406",406,"17jDHAJFVs",406,3,0,0,1,0,7,"touchdown","1.972",2,1,1,1,1,"white",1,16,19,2,"White",3.666666667,NA,4.7,4,6.4,5.8,3.333333333,4.4,2.333333333,0.808080808080808,0.808080808080808
"407",407,"17jDHAJFVs",407,7,0,0,1,0,3,"no_touchdown","0.77,",2,-1,1,0,-1,"black",2,30,19,2,"White",3.666666667,NA,4.7,4,6.4,5.8,3.333333333,4.4,2.333333333,0.808080808080808,0.808080808080808
"408",408,"17jDHAJFVs",408,3,0,0,0,1,1,"no_touchdown","1.142",2,1,0,0,1,"white",1,31,19,2,"White",3.666666667,NA,4.7,4,6.4,5.8,3.333333333,4.4,2.333333333,0.808080808080808,0.808080808080808
"409",409,"17jDHAJFVs",409,10,0,0,0,1,8,"touchdown","0.744",2,-1,0,1,-1,"black",2,32,19,2,"White",3.666666667,NA,4.7,4,6.4,5.8,3.333333333,4.4,2.333333333,0.808080808080808,0.808080808080808
"410",410,"17jDHAJFVs",410,10,0,0,1,0,2,"no_touchdown","0.991",2,-1,1,0,-1,"white",1,33,19,2,"White",3.666666667,NA,4.7,4,6.4,5.8,3.333333333,4.4,2.333333333,0.808080808080808,0.808080808080808
"411",411,"17jDHAJFVs",411,11,1,0,0,0,2,"no_touchdown","1.046",2,-1,1,0,-1,"white",1,34,19,2,"White",3.666666667,NA,4.7,4,6.4,5.8,3.333333333,4.4,2.333333333,0.808080808080808,0.808080808080808
"412",412,"17jDHAJFVs",412,12,0,0,1,0,2,"no_touchdown","3.479",2,-1,1,0,-1,"white",1,35,19,2,"White",3.666666667,NA,4.7,4,6.4,5.8,3.333333333,4.4,2.333333333,0.808080808080808,0.808080808080808
"413",413,"17jDHAJFVs",413,14,0,1,0,0,1,"no_touchdown","2.572",2,0,0,0,1,"white",1,36,19,2,"White",3.666666667,NA,4.7,4,6.4,5.8,3.333333333,4.4,2.333333333,0.808080808080808,0.808080808080808
"414",414,"17jDHAJFVs",414,4,0,0,0,1,8,"touchdown","2.684",2,-1,0,1,-1,"black",2,37,19,2,"White",3.666666667,NA,4.7,4,6.4,5.8,3.333333333,4.4,2.333333333,0.808080808080808,0.808080808080808
"415",415,"17jDHAJFVs",415,10,0,0,0,1,5,"touchdown","1.411",2,-1,0,1,-1,"black",2,38,19,2,"White",3.666666667,NA,4.7,4,6.4,5.8,3.333333333,4.4,2.333333333,0.808080808080808,0.808080808080808
"416",416,"17jDHAJFVs",416,10,0,0,1,0,1,"no_touchdown","1.676",2,-1,1,0,-1,"white",1,39,19,2,"White",3.666666667,NA,4.7,4,6.4,5.8,3.333333333,4.4,2.333333333,0.808080808080808,0.808080808080808
"417",417,"17jDHAJFVs",417,7,0,0,1,0,2,"no_touchdown","1.162",2,-1,1,0,-1,"white",1,40,19,2,"White",3.666666667,NA,4.7,4,6.4,5.8,3.333333333,4.4,2.333333333,0.808080808080808,0.808080808080808
"418",418,"17jDHAJFVs",418,11,0,0,1,0,5,"no_touchdown","1.879",2,-1,1,0,-1,"black",2,41,19,2,"White",3.666666667,NA,4.7,4,6.4,5.8,3.333333333,4.4,2.333333333,0.808080808080808,0.808080808080808
"419",419,"17jDHAJFVs",419,7,0,0,1,0,5,"no_touchdown","1.023",2,-1,1,0,-1,"black",2,42,19,2,"White",3.666666667,NA,4.7,4,6.4,5.8,3.333333333,4.4,2.333333333,0.808080808080808,0.808080808080808
"420",420,"17jDHAJFVs",420,7,0,0,1,0,6,"no_touchdown","0.876",2,-1,1,0,-1,"white",1,43,19,2,"White",3.666666667,NA,4.7,4,6.4,5.8,3.333333333,4.4,2.333333333,0.808080808080808,0.808080808080808
"421",421,"17jDHAJFVs",421,7,0,0,1,0,1,"no_touchdown","1.175",2,-1,1,0,-1,"white",1,44,19,2,"White",3.666666667,NA,4.7,4,6.4,5.8,3.333333333,4.4,2.333333333,0.808080808080808,0.808080808080808
"422",422,"17jDHAJFVs",422,11,0,0,1,0,2,"no_touchdown","1.105",2,-1,1,0,-1,"white",1,45,19,2,"White",3.666666667,NA,4.7,4,6.4,5.8,3.333333333,4.4,2.333333333,0.808080808080808,0.808080808080808
"423",423,"17jDHAJFVs",423,12,1,0,0,0,2,"no_touchdown","0.864",2,-1,1,0,-1,"white",1,46,19,2,"White",3.666666667,NA,4.7,4,6.4,5.8,3.333333333,4.4,2.333333333,0.808080808080808,0.808080808080808
"424",424,"17jDHAJFVs",424,11,0,0,1,0,6,"no_touchdown","0.608",2,-1,1,0,-1,"white",1,47,19,2,"White",3.666666667,NA,4.7,4,6.4,5.8,3.333333333,4.4,2.333333333,0.808080808080808,0.808080808080808
"425",425,"17jDHAJFVs",425,14,1,0,0,0,5,"touchdown","1.514",2,0,1,1,1,"black",2,48,19,2,"White",3.666666667,NA,4.7,4,6.4,5.8,3.333333333,4.4,2.333333333,0.808080808080808,0.808080808080808
"426",426,"17jDHAJFVs",426,11,0,0,1,0,7,"no_touchdown","1.001",2,-1,1,0,-1,"white",1,49,19,2,"White",3.666666667,NA,4.7,4,6.4,5.8,3.333333333,4.4,2.333333333,0.808080808080808,0.808080808080808
"427",427,"17jDHAJFVs",427,10,0,0,1,0,5,"no_touchdown","0.724",2,-1,1,0,-1,"black",2,50,19,2,"White",3.666666667,NA,4.7,4,6.4,5.8,3.333333333,4.4,2.333333333,0.808080808080808,0.808080808080808
"428",428,"17jDHAJFVs",428,7,0,0,1,0,7,"no_touchdown","1.408",2,-1,1,0,-1,"white",1,51,19,2,"White",3.666666667,NA,4.7,4,6.4,5.8,3.333333333,4.4,2.333333333,0.808080808080808,0.808080808080808
"429",429,"17jDHAJFVs",429,10,0,0,1,0,6,"no_touchdown","1.007",2,-1,1,0,-1,"white",1,52,19,2,"White",3.666666667,NA,4.7,4,6.4,5.8,3.333333333,4.4,2.333333333,0.808080808080808,0.808080808080808
"430",430,"17jDHAJFVs",430,12,0,0,1,0,8,"no_touchdown","0.813",2,-1,1,0,-1,"black",2,53,19,2,"White",3.666666667,NA,4.7,4,6.4,5.8,3.333333333,4.4,2.333333333,0.808080808080808,0.808080808080808
"431",431,"17jDHAJFVs",431,12,0,0,1,0,2,"no_touchdown","0.865",2,-1,1,0,-1,"white",1,54,19,2,"White",3.666666667,NA,4.7,4,6.4,5.8,3.333333333,4.4,2.333333333,0.808080808080808,0.808080808080808
"432",432,"17jDHAJFVs",432,10,0,0,1,0,2,"no_touchdown","0.664",2,-1,1,0,-1,"white",1,55,19,2,"White",3.666666667,NA,4.7,4,6.4,5.8,3.333333333,4.4,2.333333333,0.808080808080808,0.808080808080808
"433",433,"17jDHAJFVs",433,1,1,0,0,0,4,"touchdown","1.496",2,1,1,1,1,"black",2,56,19,2,"White",3.666666667,NA,4.7,4,6.4,5.8,3.333333333,4.4,2.333333333,0.808080808080808,0.808080808080808
"434",434,"17jDHAJFVs",434,11,0,0,1,0,6,"no_touchdown","0.901",2,-1,1,0,-1,"white",1,57,19,2,"White",3.666666667,NA,4.7,4,6.4,5.8,3.333333333,4.4,2.333333333,0.808080808080808,0.808080808080808
"435",435,"17jDHAJFVs",435,10,0,0,1,0,2,"no_touchdown","0.754",2,-1,1,0,-1,"white",1,58,19,2,"White",3.666666667,NA,4.7,4,6.4,5.8,3.333333333,4.4,2.333333333,0.808080808080808,0.808080808080808
"436",436,"17jDHAJFVs",436,3,0,0,1,0,4,"touchdown","1.769",2,1,1,1,1,"black",2,59,19,2,"White",3.666666667,NA,4.7,4,6.4,5.8,3.333333333,4.4,2.333333333,0.808080808080808,0.808080808080808
"437",437,"17jDHAJFVs",437,7,0,0,1,0,2,"no_touchdown","0.73,",2,-1,1,0,-1,"white",1,60,19,2,"White",3.666666667,NA,4.7,4,6.4,5.8,3.333333333,4.4,2.333333333,0.808080808080808,0.808080808080808
"438",438,"17jDHAJFVs",438,3,0,0,1,0,3,"touchdown","1.452",2,1,1,1,1,"black",2,61,19,2,"White",3.666666667,NA,4.7,4,6.4,5.8,3.333333333,4.4,2.333333333,0.808080808080808,0.808080808080808
"439",439,"17jDHAJFVs",439,8,0,0,0,1,4,"touchdown","1.311",2,-1,0,1,-1,"black",2,22,19,2,"White",3.666666667,NA,4.7,4,6.4,5.8,3.333333333,4.4,2.333333333,0.808080808080808,0.808080808080808
"440",440,"17jDHAJFVs",440,1,0,0,0,1,6,"no_touchdown","1.169",2,1,0,0,1,"white",1,23,19,2,"White",3.666666667,NA,4.7,4,6.4,5.8,3.333333333,4.4,2.333333333,0.808080808080808,0.808080808080808
"441",441,"17jDHAJFVs",441,1,0,0,1,0,8,"touchdown","1.181",2,1,1,1,1,"black",2,24,19,2,"White",3.666666667,NA,4.7,4,6.4,5.8,3.333333333,4.4,2.333333333,0.808080808080808,0.808080808080808
"442",442,"17jDHAJFVs",442,9,0,0,1,0,3,"touchdown","1.137",2,1,1,1,1,"black",2,25,19,2,"White",3.666666667,NA,4.7,4,6.4,5.8,3.333333333,4.4,2.333333333,0.808080808080808,0.808080808080808
"443",443,"17jDHAJFVs",443,10,0,0,0,1,8,"touchdown","1.544",2,-1,0,1,-1,"black",2,26,19,2,"White",3.666666667,NA,4.7,4,6.4,5.8,3.333333333,4.4,2.333333333,0.808080808080808,0.808080808080808
"444",444,"17jDHAJFVs",444,3,0,0,0,1,3,"no_touchdown","0.747",2,1,0,0,1,"black",2,27,19,2,"White",3.666666667,NA,4.7,4,6.4,5.8,3.333333333,4.4,2.333333333,0.808080808080808,0.808080808080808
"445",445,"17jDHAJFVs",445,2,0,0,1,0,7,"touchdown","0.938",2,1,1,1,1,"white",1,28,19,2,"White",3.666666667,NA,4.7,4,6.4,5.8,3.333333333,4.4,2.333333333,0.808080808080808,0.808080808080808
"446",446,"17jDHAJFVs",446,4,0,0,0,1,7,"touchdown","0.708",2,-1,0,1,-1,"white",1,29,19,2,"White",3.666666667,NA,4.7,4,6.4,5.8,3.333333333,4.4,2.333333333,0.808080808080808,0.808080808080808
"447",447,"17jDHAJFVs",447,13,0,0,0,1,7,"no_touchdown","0.986",2,0,0,0,1,"white",1,70,19,2,"White",3.666666667,NA,4.7,4,6.4,5.8,3.333333333,4.4,2.333333333,0.808080808080808,0.808080808080808
"448",448,"17jDHAJFVs",448,5,0,0,1,0,5,"touchdown","1.42,",2,1,1,1,1,"black",2,71,19,2,"White",3.666666667,NA,4.7,4,6.4,5.8,3.333333333,4.4,2.333333333,0.808080808080808,0.808080808080808
"449",449,"17jDHAJFVs",449,14,0,0,1,0,5,"touchdown","2.341",2,0,1,1,1,"black",2,72,19,2,"White",3.666666667,NA,4.7,4,6.4,5.8,3.333333333,4.4,2.333333333,0.808080808080808,0.808080808080808
"450",450,"17jDHAJFVs",450,12,0,0,1,0,5,"no_touchdown","1.627",2,-1,1,0,-1,"black",2,73,19,2,"White",3.666666667,NA,4.7,4,6.4,5.8,3.333333333,4.4,2.333333333,0.808080808080808,0.808080808080808
"451",451,"17jDHAJFVs",451,6,0,0,1,0,7,"touchdown","2.573",2,1,1,1,1,"white",1,74,19,2,"White",3.666666667,NA,4.7,4,6.4,5.8,3.333333333,4.4,2.333333333,0.808080808080808,0.808080808080808
"452",452,"17jDHAJFVs",452,9,0,1,0,0,3,"no_touchdown","1.03,",2,1,0,0,1,"black",2,75,19,2,"White",3.666666667,NA,4.7,4,6.4,5.8,3.333333333,4.4,2.333333333,0.808080808080808,0.808080808080808
"453",453,"17jDHAJFVs",453,1,0,0,0,1,7,"no_touchdown","2.668",2,1,0,0,1,"white",1,76,19,2,"White",3.666666667,NA,4.7,4,6.4,5.8,3.333333333,4.4,2.333333333,0.808080808080808,0.808080808080808
"454",454,"17jDHAJFVs",454,7,0,0,1,0,7,"no_touchdown","1.287",2,-1,1,0,-1,"white",1,77,19,2,"White",3.666666667,NA,4.7,4,6.4,5.8,3.333333333,4.4,2.333333333,0.808080808080808,0.808080808080808
"455",455,"17jDHAJFVs",455,8,0,0,1,0,5,"no_touchdown","1.37,",2,-1,1,0,-1,"black",2,78,19,2,"White",3.666666667,NA,4.7,4,6.4,5.8,3.333333333,4.4,2.333333333,0.808080808080808,0.808080808080808
"456",456,"17jDHAJFVs",456,1,0,0,1,0,3,"touchdown","1.295",2,1,1,1,1,"black",2,79,19,2,"White",3.666666667,NA,4.7,4,6.4,5.8,3.333333333,4.4,2.333333333,0.808080808080808,0.808080808080808
"457",457,"17jDHAJFVs",457,14,1,0,0,0,1,"touchdown","1.373",2,0,1,1,1,"white",1,80,19,2,"White",3.666666667,NA,4.7,4,6.4,5.8,3.333333333,4.4,2.333333333,0.808080808080808,0.808080808080808
"458",458,"17jDHAJFVs",458,3,0,0,1,0,8,"touchdown","2.041",2,1,1,1,1,"black",2,81,19,2,"White",3.666666667,NA,4.7,4,6.4,5.8,3.333333333,4.4,2.333333333,0.808080808080808,0.808080808080808
"459",459,"17jDHAJFVs",459,7,0,0,1,0,6,"no_touchdown","1.266",2,-1,1,0,-1,"white",1,82,19,2,"White",3.666666667,NA,4.7,4,6.4,5.8,3.333333333,4.4,2.333333333,0.808080808080808,0.808080808080808
"460",460,"17jDHAJFVs",460,3,1,0,0,0,4,"touchdown","1.78,",2,1,1,1,1,"black",2,83,19,2,"White",3.666666667,NA,4.7,4,6.4,5.8,3.333333333,4.4,2.333333333,0.808080808080808,0.808080808080808
"461",461,"17jDHAJFVs",461,2,0,0,1,0,6,"touchdown","1.218",2,1,1,1,1,"white",1,84,19,2,"White",3.666666667,NA,4.7,4,6.4,5.8,3.333333333,4.4,2.333333333,0.808080808080808,0.808080808080808
"462",462,"17jDHAJFVs",462,1,0,0,1,0,2,"touchdown","1.18,",2,1,1,1,1,"white",1,85,19,2,"White",3.666666667,NA,4.7,4,6.4,5.8,3.333333333,4.4,2.333333333,0.808080808080808,0.808080808080808
"463",463,"17jDHAJFVs",463,8,0,0,1,0,7,"no_touchdown","1.687",2,-1,1,0,-1,"white",1,86,19,2,"White",3.666666667,NA,4.7,4,6.4,5.8,3.333333333,4.4,2.333333333,0.808080808080808,0.808080808080808
"464",464,"17jDHAJFVs",464,10,0,0,1,0,5,"no_touchdown","1.475",2,-1,1,0,-1,"black",2,87,19,2,"White",3.666666667,NA,4.7,4,6.4,5.8,3.333333333,4.4,2.333333333,0.808080808080808,0.808080808080808
"465",465,"17jDHAJFVs",465,6,0,0,1,0,4,"touchdown","1.485",2,1,1,1,1,"black",2,88,19,2,"White",3.666666667,NA,4.7,4,6.4,5.8,3.333333333,4.4,2.333333333,0.808080808080808,0.808080808080808
"466",466,"17jDHAJFVs",466,12,0,0,1,0,1,"no_touchdown","1.461",2,-1,1,0,-1,"white",1,89,19,2,"White",3.666666667,NA,4.7,4,6.4,5.8,3.333333333,4.4,2.333333333,0.808080808080808,0.808080808080808
"467",467,"17jDHAJFVs",467,4,0,0,0,1,2,"touchdown","1.311",2,-1,0,1,-1,"white",1,90,19,2,"White",3.666666667,NA,4.7,4,6.4,5.8,3.333333333,4.4,2.333333333,0.808080808080808,0.808080808080808
"468",468,"17jDHAJFVs",468,8,0,0,1,0,2,"no_touchdown","2.025",2,-1,1,0,-1,"white",1,91,19,2,"White",3.666666667,NA,4.7,4,6.4,5.8,3.333333333,4.4,2.333333333,0.808080808080808,0.808080808080808
"469",469,"17jDHAJFVs",469,5,0,0,1,0,6,"touchdown","1.906",2,1,1,1,1,"white",1,92,19,2,"White",3.666666667,NA,4.7,4,6.4,5.8,3.333333333,4.4,2.333333333,0.808080808080808,0.808080808080808
"470",470,"17jDHAJFVs",470,11,0,0,1,0,1,"no_touchdown","1.105",2,-1,1,0,-1,"white",1,93,19,2,"White",3.666666667,NA,4.7,4,6.4,5.8,3.333333333,4.4,2.333333333,0.808080808080808,0.808080808080808
"471",471,"17jDHAJFVs",471,10,0,0,0,1,2,"touchdown","1.399",2,-1,0,1,-1,"white",1,94,19,2,"White",3.666666667,NA,4.7,4,6.4,5.8,3.333333333,4.4,2.333333333,0.808080808080808,0.808080808080808
"472",472,"17jDHAJFVs",472,1,0,0,1,0,2,"touchdown","2.902",2,1,1,1,1,"white",1,95,19,2,"White",3.666666667,NA,4.7,4,6.4,5.8,3.333333333,4.4,2.333333333,0.808080808080808,0.808080808080808
"473",473,"17jDHAJFVs",473,13,0,0,0,1,7,"no_touchdown","1.351",2,0,0,0,1,"white",1,96,19,2,"White",3.666666667,NA,4.7,4,6.4,5.8,3.333333333,4.4,2.333333333,0.808080808080808,0.808080808080808
"474",474,"17jDHAJFVs",474,14,0,0,0,1,5,"no_touchdown","1.45,",2,0,0,0,1,"black",2,97,19,2,"White",3.666666667,NA,4.7,4,6.4,5.8,3.333333333,4.4,2.333333333,0.808080808080808,0.808080808080808
"475",475,"17jDHAJFVs",475,6,0,0,0,1,6,"no_touchdown","2.872",2,1,0,0,1,"white",1,98,19,2,"White",3.666666667,NA,4.7,4,6.4,5.8,3.333333333,4.4,2.333333333,0.808080808080808,0.808080808080808
"476",476,"17jDHAJFVs",476,6,0,0,1,0,8,"touchdown","1.67,",2,1,1,1,1,"black",2,99,19,2,"White",3.666666667,NA,4.7,4,6.4,5.8,3.333333333,4.4,2.333333333,0.808080808080808,0.808080808080808
"477",477,"17jDHAJFVs",477,6,0,0,1,0,1,"touchdown","1.175",2,1,1,1,1,"white",1,100,19,2,"White",3.666666667,NA,4.7,4,6.4,5.8,3.333333333,4.4,2.333333333,0.808080808080808,0.808080808080808
"478",478,"17jDHAJFVs",478,7,0,1,0,0,2,"touchdown","0.235",2,-1,0,1,-1,"white",1,101,19,2,"White",3.666666667,NA,4.7,4,6.4,5.8,3.333333333,4.4,2.333333333,0.808080808080808,0.808080808080808
"479",479,"17jDHAJFVs",479,10,0,0,1,0,7,"no_touchdown","1.418",2,-1,1,0,-1,"white",1,102,19,2,"White",3.666666667,NA,4.7,4,6.4,5.8,3.333333333,4.4,2.333333333,0.808080808080808,0.808080808080808
"480",480,"17jDHAJFVs",480,3,0,0,1,0,7,"touchdown","1.583",2,1,1,1,1,"white",1,103,19,2,"White",3.666666667,NA,4.7,4,6.4,5.8,3.333333333,4.4,2.333333333,0.808080808080808,0.808080808080808
"481",481,"17jDHAJFVs",481,4,0,0,1,0,6,"no_touchdown","1.103",2,-1,1,0,-1,"white",1,104,19,2,"White",3.666666667,NA,4.7,4,6.4,5.8,3.333333333,4.4,2.333333333,0.808080808080808,0.808080808080808
"482",482,"17jDHAJFVs",482,10,0,0,1,0,4,"no_touchdown","1.055",2,-1,1,0,-1,"black",2,105,19,2,"White",3.666666667,NA,4.7,4,6.4,5.8,3.333333333,4.4,2.333333333,0.808080808080808,0.808080808080808
"483",483,"17jDHAJFVs",483,11,1,0,0,0,5,"no_touchdown","1.167",2,-1,1,0,-1,"black",2,106,19,2,"White",3.666666667,NA,4.7,4,6.4,5.8,3.333333333,4.4,2.333333333,0.808080808080808,0.808080808080808
"484",484,"17jDHAJFVs",484,5,0,0,0,1,6,"no_touchdown","1.12,",2,1,0,0,1,"white",1,107,19,2,"White",3.666666667,NA,4.7,4,6.4,5.8,3.333333333,4.4,2.333333333,0.808080808080808,0.808080808080808
"485",485,"17jDHAJFVs",485,5,0,0,1,0,2,"touchdown","2.208",2,1,1,1,1,"white",1,108,19,2,"White",3.666666667,NA,4.7,4,6.4,5.8,3.333333333,4.4,2.333333333,0.808080808080808,0.808080808080808
"486",486,"17jDHAJFVs",486,3,0,0,1,0,8,"touchdown","3.124",2,1,1,1,1,"black",2,109,19,2,"White",3.666666667,NA,4.7,4,6.4,5.8,3.333333333,4.4,2.333333333,0.808080808080808,0.808080808080808
"487",487,"17jDHAJFVs",487,1,1,0,0,0,4,"touchdown","1.887",2,1,1,1,1,"black",2,110,19,2,"White",3.666666667,NA,4.7,4,6.4,5.8,3.333333333,4.4,2.333333333,0.808080808080808,0.808080808080808
"488",488,"17jDHAJFVs",488,7,0,0,1,0,7,"no_touchdown","3.034",2,-1,1,0,-1,"white",1,111,19,2,"White",3.666666667,NA,4.7,4,6.4,5.8,3.333333333,4.4,2.333333333,0.808080808080808,0.808080808080808
"489",489,"17jDHAJFVs",489,7,0,0,1,0,2,"no_touchdown","1.76,",2,-1,1,0,-1,"white",1,112,19,2,"White",3.666666667,NA,4.7,4,6.4,5.8,3.333333333,4.4,2.333333333,0.808080808080808,0.808080808080808
"490",490,"17jDHAJFVs",490,11,0,0,1,0,2,"no_touchdown","1.876",2,-1,1,0,-1,"white",1,113,19,2,"White",3.666666667,NA,4.7,4,6.4,5.8,3.333333333,4.4,2.333333333,0.808080808080808,0.808080808080808
"491",491,"17jDHAJFVs",491,12,0,0,1,0,7,"no_touchdown","2.207",2,-1,1,0,-1,"white",1,114,19,2,"White",3.666666667,NA,4.7,4,6.4,5.8,3.333333333,4.4,2.333333333,0.808080808080808,0.808080808080808
"492",492,"17jDHAJFVs",492,12,0,0,1,0,7,"no_touchdown","1.769",2,-1,1,0,-1,"white",1,115,19,2,"White",3.666666667,NA,4.7,4,6.4,5.8,3.333333333,4.4,2.333333333,0.808080808080808,0.808080808080808
"493",493,"17jDHAJFVs",493,13,0,1,0,0,3,"no_touchdown","2.76,",2,0,0,0,1,"black",2,116,19,2,"White",3.666666667,NA,4.7,4,6.4,5.8,3.333333333,4.4,2.333333333,0.808080808080808,0.808080808080808
"494",494,"17jDHAJFVs",494,7,0,0,1,0,2,"no_touchdown","3.917",2,-1,1,0,-1,"white",1,117,19,2,"White",3.666666667,NA,4.7,4,6.4,5.8,3.333333333,4.4,2.333333333,0.808080808080808,0.808080808080808
"495",495,"17jDHAJFVs",495,12,1,0,0,0,5,"no_touchdown","2.041",2,-1,1,0,-1,"black",2,118,19,2,"White",3.666666667,NA,4.7,4,6.4,5.8,3.333333333,4.4,2.333333333,0.808080808080808,0.808080808080808
"496",496,"17jDHAJFVs",496,3,0,0,1,0,7,"touchdown","3.26,",2,1,1,1,1,"white",1,119,19,2,"White",3.666666667,NA,4.7,4,6.4,5.8,3.333333333,4.4,2.333333333,0.808080808080808,0.808080808080808
"497",497,"17jDHAJFVs",497,4,1,0,0,0,2,"no_touchdown","2.119",2,-1,1,0,-1,"white",1,120,19,2,"White",3.666666667,NA,4.7,4,6.4,5.8,3.333333333,4.4,2.333333333,0.808080808080808,0.808080808080808
"498",498,"17jDHAJFVs",498,12,0,0,1,0,5,"no_touchdown","3.754",2,-1,1,0,-1,"black",2,121,19,2,"White",3.666666667,NA,4.7,4,6.4,5.8,3.333333333,4.4,2.333333333,0.808080808080808,0.808080808080808
"499",499,"17jDHAJFVs",499,13,0,0,0,1,5,"no_touchdown","1.884",2,0,0,0,1,"black",2,122,19,2,"White",3.666666667,NA,4.7,4,6.4,5.8,3.333333333,4.4,2.333333333,0.808080808080808,0.808080808080808
"500",500,"17jDHAJFVs",500,3,0,0,1,0,4,"touchdown","1.997",2,1,1,1,1,"black",2,123,19,2,"White",3.666666667,NA,4.7,4,6.4,5.8,3.333333333,4.4,2.333333333,0.808080808080808,0.808080808080808
"501",501,"17jDHAJFVs",501,8,0,0,1,0,7,"no_touchdown","3.01,",2,-1,1,0,-1,"white",1,124,19,2,"White",3.666666667,NA,4.7,4,6.4,5.8,3.333333333,4.4,2.333333333,0.808080808080808,0.808080808080808
"502",502,"17jDHAJFVs",502,1,0,0,1,0,2,"touchdown","1.487",2,1,1,1,1,"white",1,125,19,2,"White",3.666666667,NA,4.7,4,6.4,5.8,3.333333333,4.4,2.333333333,0.808080808080808,0.808080808080808
"503",503,"17jDHAJFVs",503,7,0,0,1,0,2,"no_touchdown","1.219",2,-1,1,0,-1,"white",1,126,19,2,"White",3.666666667,NA,4.7,4,6.4,5.8,3.333333333,4.4,2.333333333,0.808080808080808,0.808080808080808
"504",504,"17jDHAJFVs",504,3,0,0,1,0,7,"touchdown","1.972",2,1,1,1,1,"white",1,127,19,2,"White",3.666666667,NA,4.7,4,6.4,5.8,3.333333333,4.4,2.333333333,0.808080808080808,0.808080808080808
"505",505,"17jDHAJFVs",505,3,0,0,1,0,8,"touchdown","0.937",2,1,1,1,1,"black",2,128,19,2,"White",3.666666667,NA,4.7,4,6.4,5.8,3.333333333,4.4,2.333333333,0.808080808080808,0.808080808080808
"506",506,"17jDHAJFVs",506,8,0,0,1,0,6,"no_touchdown","1.62,",2,-1,1,0,-1,"white",1,129,19,2,"White",3.666666667,NA,4.7,4,6.4,5.8,3.333333333,4.4,2.333333333,0.808080808080808,0.808080808080808
"507",507,"17jDHAJFVs",507,1,0,0,1,0,7,"touchdown","1.328",2,1,1,1,1,"white",1,130,19,2,"White",3.666666667,NA,4.7,4,6.4,5.8,3.333333333,4.4,2.333333333,0.808080808080808,0.808080808080808
"508",508,"17jDHAJFVs",508,10,1,0,0,0,8,"no_touchdown","2.174",2,-1,1,0,-1,"black",2,131,19,2,"White",3.666666667,NA,4.7,4,6.4,5.8,3.333333333,4.4,2.333333333,0.808080808080808,0.808080808080808
"509",509,"17jDHAJFVs",509,5,0,0,0,1,4,"no_touchdown","2.455",2,1,0,0,1,"black",2,132,19,2,"White",3.666666667,NA,4.7,4,6.4,5.8,3.333333333,4.4,2.333333333,0.808080808080808,0.808080808080808
"510",510,"17jDHAJFVs",510,2,0,0,1,0,3,"touchdown","1.895",2,1,1,1,1,"black",2,133,19,2,"White",3.666666667,NA,4.7,4,6.4,5.8,3.333333333,4.4,2.333333333,0.808080808080808,0.808080808080808
"511",511,"17jDHAJFVs",511,6,0,0,1,0,2,"touchdown","1.559",2,1,1,1,1,"white",1,134,19,2,"White",3.666666667,NA,4.7,4,6.4,5.8,3.333333333,4.4,2.333333333,0.808080808080808,0.808080808080808
"512",512,"17jDHAJFVs",512,13,0,0,1,0,5,"touchdown","2.5,",2,0,1,1,1,"black",2,135,19,2,"White",3.666666667,NA,4.7,4,6.4,5.8,3.333333333,4.4,2.333333333,0.808080808080808,0.808080808080808
"513",513,"17jDHAJFVs",513,1,0,0,1,0,4,"touchdown","1.25,",2,1,1,1,1,"black",2,136,19,2,"White",3.666666667,NA,4.7,4,6.4,5.8,3.333333333,4.4,2.333333333,0.808080808080808,0.808080808080808
"514",514,"17jDHAJFVs",514,5,0,0,1,0,6,"touchdown","1.966",2,1,1,1,1,"white",1,137,19,2,"White",3.666666667,NA,4.7,4,6.4,5.8,3.333333333,4.4,2.333333333,0.808080808080808,0.808080808080808
"515",515,"17jDHAJFVs",515,10,0,0,1,0,5,"no_touchdown","1.691",2,-1,1,0,-1,"black",2,138,19,2,"White",3.666666667,NA,4.7,4,6.4,5.8,3.333333333,4.4,2.333333333,0.808080808080808,0.808080808080808
"516",516,"17jDHAJFVs",516,10,0,0,1,0,7,"no_touchdown","2.154",2,-1,1,0,-1,"white",1,139,19,2,"White",3.666666667,NA,4.7,4,6.4,5.8,3.333333333,4.4,2.333333333,0.808080808080808,0.808080808080808
"517",517,"17jDHAJFVs",517,2,0,0,1,0,4,"touchdown","1.677",2,1,1,1,1,"black",2,140,19,2,"White",3.666666667,NA,4.7,4,6.4,5.8,3.333333333,4.4,2.333333333,0.808080808080808,0.808080808080808
"518",518,"17jDHAJFVs",518,6,0,0,1,0,6,"touchdown","2.525",2,1,1,1,1,"white",1,141,19,2,"White",3.666666667,NA,4.7,4,6.4,5.8,3.333333333,4.4,2.333333333,0.808080808080808,0.808080808080808
"519",519,"17jDHAJFVs",519,3,1,0,0,0,2,"touchdown","2.129",2,1,1,1,1,"white",1,142,19,2,"White",3.666666667,NA,4.7,4,6.4,5.8,3.333333333,4.4,2.333333333,0.808080808080808,0.808080808080808
"520",520,"17jDHAJFVs",520,10,0,0,1,0,2,"no_touchdown","2.425",2,-1,1,0,-1,"white",1,143,19,2,"White",3.666666667,NA,4.7,4,6.4,5.8,3.333333333,4.4,2.333333333,0.808080808080808,0.808080808080808
"521",521,"17jDHAJFVs",521,2,0,0,1,0,1,"touchdown","1.399",2,1,1,1,1,"white",1,144,19,2,"White",3.666666667,NA,4.7,4,6.4,5.8,3.333333333,4.4,2.333333333,0.808080808080808,0.808080808080808
"522",522,"17jDHAJFVs",522,10,0,0,1,0,3,"no_touchdown","1.855",2,-1,1,0,-1,"black",2,145,19,2,"White",3.666666667,NA,4.7,4,6.4,5.8,3.333333333,4.4,2.333333333,0.808080808080808,0.808080808080808
"523",523,"17jDHAJFVs",523,6,0,0,1,0,7,"touchdown","2.615",2,1,1,1,1,"white",1,146,19,2,"White",3.666666667,NA,4.7,4,6.4,5.8,3.333333333,4.4,2.333333333,0.808080808080808,0.808080808080808
"524",524,"17jDHAJFVs",524,9,0,0,0,1,8,"no_touchdown","3.298",2,1,0,0,1,"black",2,147,19,2,"White",3.666666667,NA,4.7,4,6.4,5.8,3.333333333,4.4,2.333333333,0.808080808080808,0.808080808080808
"525",525,"17jDHAJFVs",525,7,0,0,1,0,6,"no_touchdown","2.7,",2,-1,1,0,-1,"white",1,148,19,2,"White",3.666666667,NA,4.7,4,6.4,5.8,3.333333333,4.4,2.333333333,0.808080808080808,0.808080808080808
"526",526,"17jDHAJFVs",526,3,0,0,1,0,1,"touchdown","2.128",2,1,1,1,1,"white",1,149,19,2,"White",3.666666667,NA,4.7,4,6.4,5.8,3.333333333,4.4,2.333333333,0.808080808080808,0.808080808080808
"527",527,"17jDHAJFVs",527,1,0,0,1,0,6,"touchdown","1.608",2,1,1,1,1,"white",1,150,19,2,"White",3.666666667,NA,4.7,4,6.4,5.8,3.333333333,4.4,2.333333333,0.808080808080808,0.808080808080808
"528",528,"17jDHAJFVs",528,8,0,0,1,0,2,"no_touchdown","2.716",2,-1,1,0,-1,"white",1,151,19,2,"White",3.666666667,NA,4.7,4,6.4,5.8,3.333333333,4.4,2.333333333,0.808080808080808,0.808080808080808
"529",529,"17jDHAJFVs",529,7,0,0,1,0,7,"no_touchdown","1.503",2,-1,1,0,-1,"white",1,152,19,2,"White",3.666666667,NA,4.7,4,6.4,5.8,3.333333333,4.4,2.333333333,0.808080808080808,0.808080808080808
"530",530,"17jDHAJFVs",530,3,1,0,0,0,7,"touchdown","1.887",2,1,1,1,1,"white",1,153,19,2,"White",3.666666667,NA,4.7,4,6.4,5.8,3.333333333,4.4,2.333333333,0.808080808080808,0.808080808080808
"531",531,"17jDHAJFVs",531,9,0,0,1,0,6,"touchdown","2.087",2,1,1,1,1,"white",1,154,19,2,"White",3.666666667,NA,4.7,4,6.4,5.8,3.333333333,4.4,2.333333333,0.808080808080808,0.808080808080808
"532",532,"17jDHAJFVs",532,5,0,0,1,0,8,"touchdown","1.455",2,1,1,1,1,"black",2,155,19,2,"White",3.666666667,NA,4.7,4,6.4,5.8,3.333333333,4.4,2.333333333,0.808080808080808,0.808080808080808
"533",533,"17jDHAJFVs",533,14,0,0,1,0,8,"touchdown","1.911",2,0,1,1,1,"black",2,156,19,2,"White",3.666666667,NA,4.7,4,6.4,5.8,3.333333333,4.4,2.333333333,0.808080808080808,0.808080808080808
"534",534,"17jDHAJFVs",534,11,0,0,0,1,8,"touchdown","1.807",2,-1,0,1,-1,"black",2,157,19,2,"White",3.666666667,NA,4.7,4,6.4,5.8,3.333333333,4.4,2.333333333,0.808080808080808,0.808080808080808
"535",535,"17jDHAJFVs",535,11,0,0,1,0,6,"no_touchdown","2.289",2,-1,1,0,-1,"white",1,158,19,2,"White",3.666666667,NA,4.7,4,6.4,5.8,3.333333333,4.4,2.333333333,0.808080808080808,0.808080808080808
"536",536,"17jDHAJFVs",536,4,0,0,1,0,6,"no_touchdown","1.261",2,-1,1,0,-1,"white",1,159,19,2,"White",3.666666667,NA,4.7,4,6.4,5.8,3.333333333,4.4,2.333333333,0.808080808080808,0.808080808080808
"537",537,"17jDHAJFVs",537,1,0,0,1,0,3,"touchdown","3.263",2,1,1,1,1,"black",2,160,19,2,"White",3.666666667,NA,4.7,4,6.4,5.8,3.333333333,4.4,2.333333333,0.808080808080808,0.808080808080808
"538",538,"17jDHAJFVs",538,12,0,0,1,0,4,"no_touchdown","2.507",2,-1,1,0,-1,"black",2,161,19,2,"White",3.666666667,NA,4.7,4,6.4,5.8,3.333333333,4.4,2.333333333,0.808080808080808,0.808080808080808
